time,seconds_elapsed,z,y,x
1783339083837483300,0.072483154296875,0.1858972501426935,-0.1902414168268442,-0.031124731179885564
1783339083847456300,0.082456298828125,0.13187749066352844,-0.1925277741983533,0.09473813883662223
1783339083857429200,0.09242919921875,0.16599895597398281,-0.1510658829972148,0.114847518472746
1783339083867402200,0.10240234375,0.19404373171925543,-0.09595832828134297,0.037977556216716765
1783339083877375500,0.11237548828125,0.22127426847219467,-0.020486323189735412,-0.10636135661303997
1783339083887347200,0.12234716796875,0.25750351971685886,0.07011281614601611,-0.28058888295646756
1783339083897320200,0.1323203125,0.3187503078401088,0.10055763877034186,-0.32278339928109195
1783339083907293400,0.14229345703125,0.3832973065525293,0.10477467194348573,-0.265439719543606
1783339083917266400,0.152266357421875,0.3613309739381075,0.02691664849817753,-0.23876020426955072
1783339083927239200,0.1622392578125,0.3782382695972919,-0.11893383793830871,-0.1969334252787754
1783339083937212200,0.172212158203125,0.38754678069055076,-0.34862726744860406,-0.04421999427024275
1783339083947185200,0.18218505859375,0.40948038007915016,-0.4497138985291123,0.017412687898054717
1783339083957157400,0.192157470703125,0.39656770701408384,-0.5611500741884112,-0.08832480119559913
1783339083967130000,0.202130126953125,0.3084668142348528,-0.6086565062507987,-0.3218993829881772
1783339083977103400,0.212103271484375,0.10361819538474082,-0.46422670026719565,-0.6419533573053777
1783339083987076400,0.222076416015625,-0.08602291746139526,-0.10673077444732189,-1.0716443123728037
1783339083997049300,0.23204931640625,-0.26238018584251405,0.019935411308705804,-1.5875653979115187
1783339084007022000,0.24202197265625,-0.2513976040571928,-0.2812304322630167,-2.3314734013035894
1783339084016994300,0.251994384765625,0.2540378894329071,0.1610956941023469,-2.3559799199201166
1783339084026967300,0.26196728515625,0.6199620363801718,0.7064861813619733,-1.9822792937524616
1783339084036940300,0.271940185546875,0.6303314547032117,0.7986211519628763,-1.7049191270515323
1783339084046913000,0.2819130859375,0.200184134170413,0.5804094859316945,-1.833446138243377
1783339084056886300,0.29188623046875,-0.40280630914270876,0.4775225274309516,-2.064425223650038
1783339084066859300,0.301859375,-1.2768494895756244,0.5126039238147437,-1.968922237920761
1783339084076831200,0.311831298828125,-1.7507266462415456,0.6088501291267574,-1.713355969876796
1783339084086804200,0.32180419921875,-1.9486516033083199,0.43904374369382854,-1.306421913279593
1783339084096777200,0.331777099609375,-1.8891116191029547,-0.012989829954504966,-1.1488511784330009
1783339084106750200,0.341750244140625,-1.5994675787597894,-0.401448172532022,-1.2107304192408919
1783339084116723200,0.35172314453125,-1.1923217791080474,-0.9028639089867472,-1.5434841179922223
1783339084126696400,0.361696533203125,-1.4011837252527475,-1.3847121906623243,-1.9765666151940822
1783339084136669200,0.371669189453125,-1.358013276568055,-1.3910714965611695,-2.218766475056112
1783339084146641200,0.38164111328125,-0.7733475944966077,-1.0889484983950852,-2.5738506635591385
1783339084156614400,0.391614501953125,0.0714426034450531,-0.6543713787212968,-2.8556811075419186
1783339084166587400,0.40158740234375,1.2068214291036128,-0.43679830285459753,-2.701203078013658
1783339084176560000,0.41156005859375,2.352588962307572,-0.6171884800136089,-1.9212506784245371
1783339084186533000,0.421533203125,2.5671739622741936,-0.8771629198886454,-0.962126829816401
1783339084196506400,0.43150634765625,1.9012743505835532,-0.9109764882937074,-0.4013938119962811
1783339084206478300,0.441478271484375,0.7500584888458252,-0.5998699732050299,-0.5137982481658459
1783339084216451000,0.451451171875,-0.5976894142955541,-0.7980331229418516,-1.0323848996520042
1783339084226424300,0.46142431640625,-2.2059832735896108,-1.9974688257083295,-0.8124054932959377
1783339084236397300,0.471397216796875,-3.583114507603645,-1.9469737332239745,-0.42664968767538664
1783339084246370300,0.481370361328125,-3.077662062978744,0.5746601286247373,-0.6242528654418885
1783339084256343300,0.49134326171875,-0.6749526867181063,3.087726068614423,-1.144101061296463
1783339084266316300,0.50131640625,-0.7112199318856001,3.409618473872542,-1.1923442101355641
1783339084276288300,0.511288330078125,-1.921028852367401,4.030055142027139,-0.4791925064697861
1783339084286261200,0.52126123046875,-2.535658295547962,4.459374779564142,0.2163262176107615
1783339084296234500,0.531234375,-2.3337778788536787,4.735057222311198,0.777838183914125
1783339084306207200,0.541207275390625,-1.5996978803843258,4.83228688570261,1.0798206776309758
1783339084316180200,0.55118017578125,-0.16902619484066964,4.81486754886806,1.3206342707663774
1783339084326153200,0.5611533203125,1.0728419977247714,4.531741512116789,1.7837284598723053
1783339084336125400,0.57112548828125,1.8425737398117779,3.9888521940231323,2.0144570776492357
1783339084346098200,0.58109814453125,2.4383494294404984,3.564796176102757,1.9878934803724289
1783339084356071200,0.5910712890625,2.8401509454548357,3.2802368916779754,1.9292454765707254
1783339084366044200,0.601044189453125,3.6825674000024793,3.0258517962425944,1.9321882520243525
1783339084376017400,0.611017333984375,4.170700461035967,2.8255723850041625,1.78305772100389
1783339084385990100,0.620990234375,4.240827305707335,3.059062576448917,1.5899366570875049
1783339084395963100,0.630963134765625,3.9807285088002677,3.711085638478398,1.4799147321403026
1783339084405935400,0.640935302734375,3.6704426624447106,4.6748263332322235,1.5181263893738388
1783339084415908400,0.650908447265625,3.0308348453521727,5.247740494972467,1.5051669545575976
1783339084425881000,0.660881103515625,2.0112965677917,5.18251720443368,1.2292276144400238
1783339084435854000,0.67085400390625,1.5425281324416398,5.4564744308233255,1.522316534540057
1783339084445827300,0.680827392578125,1.933755647471547,5.759955273339152,2.49478092623651
1783339084455800300,0.69080029296875,3.246259218752384,5.3304614482790225,4.096621663868427
1783339084465772000,0.70077197265625,4.490439779913425,5.231596000379324,4.744866376402974
1783339084475745300,0.710745361328125,5.566829825508594,5.808962757614254,4.167742195752263
1783339084485718300,0.72071826171875,5.738627823150158,6.0231485291302205,3.7304976104348895
1783339084495691300,0.730691162109375,5.021493114262819,5.743820715618133,3.602703005170822
1783339084505664300,0.740664306640625,3.6161715585529803,5.25933507117629,3.847800632300973
1783339084515637200,0.75063720703125,2.382815173745155,5.260804559206962,3.863867385482788
1783339084525610200,0.7606103515625,1.54670571038723,5.17356408264935,3.5553719296753403
1783339084535582200,0.770582275390625,0.6427975530445575,5.304088989660143,3.1642356000602243
1783339084545555500,0.780555419921875,-0.8260013263195752,5.051055893355608,2.89685833658278
1783339084555528200,0.790528076171875,-2.1126690300762654,4.102969863851368,2.2080653405606747
1783339084565501200,0.800501220703125,-3.082773122382164,3.9804496918588876,1.478804140549898
1783339084575474200,0.81047412109375,-3.7238358144581314,4.506477599261701,0.7824749038040637
1783339084585447400,0.820447509765625,-5.003738261863589,4.562907342492044,0.15789572901725768
1783339084595419100,0.830419189453125,-6.524690522313118,5.098660525095463,-0.4995096105724573
1783339084605392100,0.84039208984375,-7.349847214502096,5.167570395192504,-1.5081933166414498
1783339084615365000,0.850365234375,-7.068143904030323,4.408305686584114,-3.223355313026905
1783339084625338000,0.860338134765625,-6.545185028809309,3.6428047139346598,-4.880763624101877
1783339084635311000,0.87031103515625,-6.2777902296751735,2.5901374892324207,-6.494826129925251
1783339084645284000,0.8802841796875,-6.108530226078629,1.7416989979162811,-8.124417628791928
1783339084655257300,0.89025732421875,-6.174461372625827,1.5118556385412811,-8.705708865994215
1783339084665229000,0.90022900390625,-6.223659411036968,1.3952742089480161,-8.348781679973007
1783339084675202000,0.9102021484375,-5.582977242711186,1.3007532199934124,-7.9682392250865695
1783339084685175300,0.92017529296875,-4.244747694021463,1.32715695053339,-7.9427680992215866
1783339084695148300,0.930148193359375,-2.4958377418130633,0.8232958667531609,-7.9605743895471095
1783339084705121000,0.94012109375,-0.4326882006546482,-0.05567717129737138,-7.881115652906894
1783339084715094000,0.950093994140625,1.3870277741283177,-0.24622341628968714,-7.1293830933690066
1783339084725067300,0.9600673828125,2.642182149246335,-0.3400666521131992,-5.999868191307783
1783339084735039200,0.970039306640625,3.670824355238676,-0.5958212823361158,-4.946028415694832
1783339084745012000,0.980011962890625,4.621069900864362,-0.7362900757342576,-4.227609512215852
1783339084754985200,0.989985107421875,5.42261658488512,-1.3178648060530422,-3.876372062268853
1783339084764958200,0.999958251953125,5.739353214815258,-2.113892434391379,-4.608824167275428
1783339084774931200,1.00993115234375,5.484155633953213,-3.187746824029088,-5.558917737209796
1783339084784904200,1.019904296875,5.201546314552426,-4.204548954623937,-6.566045446008443
1783339084794877000,1.029876953125,5.097611892825364,-4.675494149491191,-6.900089769092202
1783339084804849200,1.03984912109375,4.743873858234286,-4.78769371073842,-6.140408880898356
1783339084814822100,1.049822265625,4.453229700937867,-4.3200837977737185,-4.9400049176216125
1783339084824795100,1.059795166015625,4.0477579719781875,-3.5898066987186668,-3.245481220117211
1783339084834768100,1.06976806640625,2.896477228310704,-2.858132592347264,-0.883074628150463
1783339084844741000,1.0797412109375,1.2708797675162553,-2.8980151054024694,0.7945324213445186
1783339084854714000,1.089714111328125,0.0005300882887095213,-3.0256805313289163,0.3740998546183109
1783339084864687000,1.09968701171875,-0.9413216499358416,-3.4214415981352326,-1.8354519251078367
1783339084874660400,1.109660400390625,-1.0143850595157593,-4.4581332550704476,-5.670994548860192
1783339084884632000,1.119632080078125,0.26431904495060443,-5.683112856677174,-8.589920924866199
1783339084894605000,1.12960498046875,5.578169550168514,-6.4821227156966925,-8.422885611581801
1783339084904578300,1.139578369140625,9.448301256743074,-6.692028033414482,-7.334151048198342
1783339084914551000,1.149551025390625,9.309650910943747,-6.11220277711153,-6.846389158564806
1783339084924524000,1.15952392578125,6.865704684409499,-4.6566170150637625,-2.4328484939366577
1783339084934497000,1.1694970703125,1.8701660956144333,-2.377127191236615,3.32041984898448
1783339084944470300,1.17947021484375,-0.823528798726201,-1.3699801932156086,3.4811090081125498
1783339084954442000,1.18944189453125,-3.9150077901333566,0.6796762081086635,8.766135569906234
1783339084964415000,1.1994150390625,-4.872947397392988,3.417583753663301,13.198127837026119
1783339084974388200,1.20938818359375,-2.4695944625318047,3.8073470413595434,10.775167699897288
1783339084984361200,1.219361328125,1.572748498660326,3.025090164220333,5.60208584780693
1783339084994334200,1.229334228515625,4.039690400856733,1.9866203916966914,-0.47738487252593037
1783339085004307000,1.239306884765625,4.2773476488530635,0.04693535417616367,-6.174483584457636
1783339085014280200,1.2492802734375,2.279408575284481,-0.8714075712323188,-9.214500684174896
1783339085024253200,1.259253173828125,0.32204818034172056,-0.8114023076027631,-10.418034177649021
1783339085034225200,1.26922509765625,0.1446680717188865,-0.6599298896312713,-13.111143965578078
1783339085044198100,1.2791982421875,-4.491156403750181,2.0875456947356463,-12.801688724827766
1783339085054171100,1.289171142578125,-6.245192028409242,4.581168098586797,-7.461649300864338
1783339085064144100,1.29914404296875,-3.951496569097042,4.9505935316532845,-4.929909640064835
1783339085074117000,1.3091171875,-0.10315280636269598,4.645231697696447,-4.840283145153522
1783339085084090000,1.319090087890625,3.4094179828643796,3.9239679261803624,-5.2193613727062935
1783339085094063000,1.32906298828125,4.591772494709492,3.1279028884410858,-4.879909053099155
1783339085104035000,1.33903515625,4.03975236017704,2.0811603776127097,-4.502731690731644
1783339085114008000,1.349008056640625,2.7175428029179574,0.8121423123151064,-3.971315368288755
1783339085123981300,1.358981201171875,1.4092670784652233,-0.41276773118674753,-2.8716414777398107
1783339085133954000,1.3689541015625,1.1410029491506517,-0.993721699258685,-1.348936236143112
1783339085143927000,1.378927001953125,0.9084674280822277,-0.8345879528790712,0.665465896448493
1783339085153900000,1.388900146484375,0.4739337091587484,-0.5753665233284234,1.9689374354898928
1783339085163873300,1.398873291015625,-1.397177850612253,-1.203092763969302,3.6938860818743704
1783339085173846300,1.40884619140625,-2.9440754303097725,-2.3266069643110034,4.171016102856397
1783339085183818000,1.41881787109375,-2.4387653167650103,-4.243598523986339,3.717594874241948
1783339085193791200,1.428791259765625,-1.484285494570434,-5.958021684703231,2.178341233426332
1783339085203764200,1.43876416015625,-1.540956499210745,-7.607580451321601,0.499452327427268
1783339085213737200,1.4487373046875,-2.0702347867116333,-8.82274417683482,0.32050796516239644
1783339085223710000,1.4587099609375,-2.6149779159784314,-9.044282649201154,-0.365632470524311
1783339085233683200,1.46868310546875,-4.046059643627703,-7.697309822085499,-0.7626327237367629
1783339085243656200,1.47865625,-5.837821187829971,-6.700718120348453,0.6019505788713694
1783339085253629200,1.488629150390625,-5.538515585172176,-7.300110831430554,0.8573813839673996
1783339085263601200,1.49860107421875,-4.7354000443994995,-5.746343512094021,0.27804654152989383
1783339085273574100,1.50857421875,-3.5090848102748393,-2.864894049306214,1.5337316625237465
1783339085283547100,1.518547119140625,-1.5054514705874025,-0.5187500253543258,4.151674858048558
1783339085293520100,1.52852001953125,0.5513386550743132,1.6470356778815387,8.215506597471236
1783339085303493000,1.5384931640625,0.9975836353838443,2.7145918441578742,12.468282115125655
1783339085313466000,1.548466064453125,0.12923070248179136,2.851070106615126,13.577078054285048
1783339085323439000,1.558439208984375,-4.382644591104984,4.643478132027387,11.299413692319392
1783339085333412000,1.568412109375,-6.160259828794002,4.314111445365846,9.932382996559143
1783339085343384000,1.578384033203125,-3.043281069949269,2.5928905873328447,7.0458654367268085
1783339085353357000,1.588357177734375,1.817288199646771,1.7299805030718445,1.997492498844862
1783339085363330000,1.598330078125,5.128031581008434,0.618040420667827,-1.5585884558826684
1783339085373303300,1.60830322265625,6.233673440051079,0.18700521138459442,-3.1911674461275337
1783339085383276300,1.6182763671875,3.29811390915215,0.9687684597879648,-3.6459663928359745
1783339085393249000,1.6282490234375,1.3536515742272137,1.3518378028035163,-4.306249918210506
1783339085403222000,1.638221923828125,0.6288283566638827,1.8691975428432226,-4.333250153338909
1783339085413195000,1.648195068359375,2.151600233756006,3.196560537342727,-3.424848776230216
1783339085423168300,1.658168212890625,5.015211842036247,4.521637174470722,-2.3439088122457266
1783339085433140000,1.668139892578125,7.0146016989350315,7.231662733626365,-2.0683897433668372
1783339085443113200,1.67811328125,5.907924067103862,10.005967288208007,-3.829754688000679
1783339085453086200,1.688086181640625,3.0727365892753005,8.926134993204474,-4.462048967209458
1783339085463059200,1.69805908203125,-0.04966185653060674,6.950035411000251,-2.627355166992545
1783339085473032200,1.7080322265625,-0.16406915695518254,4.216132717172801,-0.1883206778973341
1783339085483005000,1.7180048828125,0.8699217165887355,2.1520558685690165,2.2231495124459264
1783339085492978200,1.727978271484375,2.2625074171051383,0.8705328342244029,2.8947394447326658
1783339085502951200,1.737951171875,3.69439110878706,0.18616437664628027,2.0967261955350636
1783339085512924200,1.747924072265625,3.89560575504899,0.16002748034894465,1.175865734347701
1783339085522896100,1.757896240234375,2.8492300317063926,0.49395431453287597,0.47284606005251406
1783339085532869000,1.767869140625,1.7086080446973442,0.9393670087367295,0.42833588719666
1783339085542842000,1.777842041015625,0.49960254955291744,2.322374441307783,0.864527164068818
1783339085552815000,1.787815185546875,0.6858128111675381,2.968731732660532,-0.10406710819602012
1783339085562788400,1.797788330078125,0.3154366532474756,2.78680338614881,-0.43898178437352176
1783339085572761000,1.807760986328125,-1.1411723143681882,1.7198106989741324,0.159612762068212
1783339085582734000,1.817734130859375,-2.4493615295812488,0.6343658247858286,-0.03600099544674158
1783339085592707000,1.82770703125,-2.925529719793796,1.0361819538474082,-1.300351068933308
1783339085602680300,1.837680419921875,-2.701326996654272,1.6538357132852077,-2.0930749795511363
1783339085612651800,1.84765185546875,-2.3595056098282337,1.1401140374869108,-3.1139211248397825
1783339085622624800,1.857624755859375,-2.4124551097273823,-0.3791577225297689,-4.074340273955464
1783339085632597800,1.86759765625,-2.6823101614952085,-1.8767606715738772,-4.600203346185386
1783339085642570800,1.87757080078125,-2.0088170259356497,-2.46757084774971,-4.562596669107675
1783339085652543700,1.887543701171875,-1.1772902141928672,-2.831118328693509,-4.860697572150826
1783339085662516700,1.897516845703125,-1.1906921320796011,-3.7073230710744856,-5.78039892643094
1783339085672490000,1.907489990234375,-1.2598527620673179,-3.9980817946612834,-6.032217970770597
1783339085682462700,1.917462646484375,-0.8554290808558463,-4.245888680750132,-5.631776052671671
1783339085692435700,1.927435791015625,-0.528432959250547,-4.675120640003681,-4.59573818347007
1783339085702408700,1.93740869140625,0.7776536941926926,-5.231384987977147,-3.6772239931479094
1783339085712381000,1.947380859375,1.1387088468641042,-5.358560584560037,-2.728580329760909
1783339085722353700,1.957353759765625,0.39713940595481545,-5.460142890202999,-2.0369117783024904
1783339085732326700,1.96732666015625,-0.13608425817098468,-4.840272623759508,-1.2027639704063533
1783339085742300000,1.9772998046875,-0.8334843755513429,-1.7717121511250733,1.5066738519892096
1783339085752273000,1.98727294921875,-1.3472931451112031,5.270943675905466,6.49072395530343
1783339085762246000,1.997245849609375,-0.660969169551134,10.21614733121395,9.300664471411704
1783339085772218600,2.007218505859375,-0.03924070802032947,7.573968104577064,6.283249079602957
1783339085782191900,2.01719189453125,-0.23844224262787028,0.9051163640886545,0.7014142849251628
1783339085792164900,2.027164794921875,-0.1747433303784579,-3.165807963943481,-1.4322712296947837
1783339085802137900,2.037137939453125,0.252408278937079,-5.150052858680486,-2.3649670901045203
1783339085812109800,2.04710986328125,0.13395948456935583,-6.345771294489502,-3.1847727766543623
1783339085822082800,2.057082763671875,0.42875732747912404,-6.2248781391769645,-3.808547941581905
1783339085832055800,2.067055908203125,0.6716350135374813,-4.65358159289062,-3.494269518458843
1783339085842028800,2.07702880859375,0.5906033284921198,-2.5153479134470222,-3.061524582648277
1783339085852001800,2.087001708984375,0.08006948894970119,0.03087619977891445,-2.461255673253536
1783339085861974800,2.096974853515625,-0.6358440075796097,2.0948802754074336,-2.1109189715385437
1783339085871947800,2.10694775390625,-1.1842799269497395,3.654615563237667,-2.075216082255542
1783339085881920800,2.116920654296875,-1.456668296587467,5.2771583126366135,-1.6304922470986842
1783339085891893800,2.126893798828125,-1.067206622186303,6.852910669288039,-0.5564969876855611
1783339085901867000,2.136866943359375,0.8982026391774416,8.492599783799053,1.0896864572808145
1783339085911838700,2.146838623046875,3.246673060250282,10.080012183105945,3.3081346601679917
1783339085921811700,2.156811767578125,4.9816269678205245,10.693016655433178,5.0232373275816435
1783339085931785000,2.166784912109375,5.339974542033672,9.735755093565583,5.291967759233713
1783339085941758000,2.176758056640625,3.5188463258326053,8.45282423824966,5.678543649065494
1783339085951730700,2.186730712890625,0.7070283254146575,7.525511824443936,6.517964428928494
1783339085961703700,2.19670361328125,-1.8023475278854368,7.441399709039926,7.388662975108623
1783339085971677000,2.206677001953125,-3.4783529874026775,7.718611553311347,7.916791946443915
1783339085981650000,2.21664990234375,-3.0688439657509323,6.087746381247043,5.66654224562645
1783339085991622700,2.22662255859375,-1.8623311642050742,5.047352947184443,3.5855604394510388
1783339086001595600,2.236595703125,-1.1014847393631935,4.907537064737081,2.9518948718890545
1783339086011569000,2.24656884765625,-0.9778127669870853,4.4357986736655235,3.304927388559282
1783339086021540900,2.256540771484375,-1.426502290904522,3.67989905757606,3.408505544194579
1783339086031513600,2.266513671875,-1.4021709827244282,2.466373746919632,2.235207614508271
1783339086041486800,2.27648681640625,-1.0843968264400958,-0.568759672409296,-0.4234852322950959
1783339086051459800,2.2864599609375,-0.6827391028106212,-3.2990900607079268,-2.514683896580338
1783339086061432800,2.296432861328125,-0.21548574819862842,-4.772557516404986,-3.661046180807054
1783339086071405800,2.30640576171875,0.2700625570386648,-5.569373080250621,-4.4892023470729585
1783339086081378800,2.31637890625,0.8103326325446367,-6.440701156505942,-5.188432565957307
1783339086091351800,2.326351806640625,1.1833014373064041,-7.321102181532979,-5.742458779615164
1783339086101324800,2.33632470703125,1.2942156349182128,-7.967153183415531,-5.9709495553374285
1783339086111297800,2.3462978515625,1.0851233871489763,-7.906568074071407,-5.855993973380327
1783339086121270800,2.356270751953125,0.6371048943608999,-7.295234749826789,-5.05923861528933
1783339086131242800,2.36624267578125,-0.08409459801362827,-6.972348365095257,-4.24308326794058
1783339086141215700,2.3762158203125,-0.8766618384987115,-6.90184625737071,-3.776424956612289
1783339086151188700,2.386188720703125,-1.6247160017848015,-6.6837365904092785,-3.750783734877407
1783339086161162000,2.396161865234375,-2.062683056157827,-6.464688181293011,-4.152302050036192
1783339086171134700,2.406134765625,-1.9454922624945639,-6.189540283814072,-4.657307335415482
1783339086181107700,2.416107666015625,-1.2751403475701808,-5.791795934236049,-4.91874877910316
1783339086191080700,2.426080810546875,-0.31836803052425383,-5.38490615517199,-4.768143207094073
1783339086201054000,2.436053955078125,0.46003275570869445,-5.327846881866455,-4.49526033193767
1783339086211027000,2.44602685546875,0.8849871837735176,-5.724517464733124,-4.427973386867344
1783339086220999700,2.455999755859375,1.4172715212225913,-6.113239134421944,-4.483460004028678
1783339086230972700,2.46597265625,2.248696626156568,-5.88683568636775,-4.340943922711909
1783339086240945000,2.47594482421875,3.1075054125785826,-4.912710083460808,-3.9456133562773466
1783339086250918000,2.48591796875,3.862424785459041,-3.204901956969499,-3.384754666250944
1783339086260890600,2.495890625,4.271450992029905,-0.7230547465860844,-2.481064535573125
1783339086270864000,2.50586376953125,4.839142158424854,1.8181237736880778,-1.360686002908647
1783339086280836900,2.5158369140625,4.777454056274891,3.8940550184756515,0.48702276170402764
1783339086290809900,2.525809814453125,3.0973370697855946,5.003610251569747,3.2216458787605164
1783339086300782800,2.535782958984375,1.188760579495132,6.249163854649662,6.002255378705263
1783339086310755800,2.545755859375,-0.6204653097271919,7.638526209205389,8.149773603844642
1783339086320728800,2.555728759765625,-2.6665362537801265,8.096618352240323,8.275995845225452
1783339086330701800,2.565701904296875,-4.754435584259033,8.339512916368246,6.504366696208715
1783339086340674800,2.5756748046875,-5.751115548801422,9.452456622856856,4.506564108501374
1783339086350647800,2.585647705078125,-5.724502267163992,10.866696813559532,3.8879029255867
1783339086360619800,2.595619873046875,-4.955705175578594,11.6246931096673,4.048463782159984
1783339086370592800,2.6055927734375,-3.8399195236623287,12.391468924558161,4.946958390021324
1783339086380565800,2.615565673828125,-2.1144120743513106,12.983512441921233,6.3444999593794345
1783339086390538800,2.625538818359375,0.1564120663307607,13.872655576330423,7.971601979517936
1783339086400511700,2.63551171875,2.269282171937078,14.632518835353851,8.610085761016606
1783339086410484700,2.645484619140625,4.035850092041493,14.242370347732304,7.6571210195600985
1783339086420457700,2.655457763671875,4.533019861489534,13.53050685724616,6.205619896477461
1783339086430431000,2.665430908203125,4.542983621621132,12.630573448753356,4.442466607122123
1783339086440403700,2.67540380859375,4.48925553856492,10.571685108703374,1.977273886680603
1783339086450376700,2.685376708984375,4.277555738645792,7.6863576354384415,-0.2799845238551497
1783339086460349700,2.695349609375,3.8745430932760234,4.95321335876286,-1.7055524565190077
1783339086470323000,2.705322998046875,3.000550766247511,2.529419693419337,-2.6573548761978745
1783339086480294700,2.715294677734375,1.9334733233988284,-0.07975801184773444,-3.1124963527336713
1783339086490267600,2.725267578125,0.9123463153421878,-2.75066005962193,-3.117257868047058
1783339086500241000,2.735240966796875,-0.038373898590542375,-4.86261071229577,-3.078343615502119
1783339086510214000,2.7452138671875,-0.8144026584625244,-6.268201148074865,-2.9113050873473285
1783339086520187000,2.755186767578125,-1.3837678955495356,-7.488303499034047,-3.045201808878779
1783339086530159600,2.76515966796875,-2.007169843250513,-8.694574893039464,-3.8315003626242277
1783339086540132900,2.7751328125,-2.849453026807308,-9.849998143339157,-5.001705879253149
1783339086550105900,2.78510595703125,-3.6762931420385834,-10.391856949341296,-5.975009644383192
1783339086560078800,2.795078857421875,-4.181916267055273,-10.609437039470672,-6.311658597007393
1783339086570051800,2.8050517578125,-4.313752841186523,-11.076329744076729,-6.1928527693629265
1783339086580024800,2.81502490234375,-3.773497963249683,-11.718777753031253,-5.916157642441988
1783339086589997800,2.824997802734375,-2.4737036514163018,-12.171957574105262,-5.391295563948154
1783339086599969800,2.8349697265625,-1.0553555139381439,-11.94953998081684,-4.704489065568149
1783339086609942800,2.84494287109375,0.09169738290123641,-11.149037252891063,-4.251404521562159
1783339086619915800,2.854915771484375,0.9857412218987941,-10.2784199552536,-4.229371845713257
1783339086629888800,2.864888671875,1.6007155329942702,-9.315937443867325,-4.739933011654019
1783339086639861500,2.874861572265625,1.9945628751337527,-8.241939261844754,-5.685633899587392
1783339086649834800,2.884834716796875,2.189129169422388,-7.230556818211078,-6.773975079739094
1783339086659807700,2.894807861328125,2.1879145329356193,-6.28753245601058,-7.380514739966392
1783339086669780700,2.90478076171875,2.041678700443357,-5.734309375429153,-7.438311095374822
1783339086679753700,2.914753662109375,1.6623592114806174,-5.661202638164163,-7.3559496230304235
1783339086689726500,2.9247265625,0.6993909624040127,-5.984565408235788,-7.185972995597123
1783339086699699700,2.93469970703125,-0.32328853579163547,-6.263055601879954,-7.229171501332521
1783339086709672700,2.944672607421875,-0.5411397710125893,-5.882355326083302,-7.372830615204572
1783339086719645700,2.954645751953125,-0.8116225262247025,-5.013010532599687,-7.1233788845181465
1783339086729617700,2.96461767578125,-0.9274445157527923,-3.7570799124121663,-6.562237870419025
1783339086739590700,2.974590576171875,-0.774076493293047,-2.0637831263542172,-5.9178580166190855
1783339086749563600,2.984563720703125,0.0074302961312234395,0.5667448254555464,-5.017208568811417
1783339086759536600,2.99453662109375,1.7281332677699623,4.696077503314614,-3.053255351474881
1783339086769510000,3.004510009765625,3.470395306396484,10.348319420909881,-0.15147095666676758
1783339086779482600,3.014482666015625,3.7742473203122615,15.242988820767401,3.0715242908760905
1783339086789455600,3.02445556640625,1.979936968410015,16.926258718329667,6.9167071418941015
1783339086799428600,3.0344287109375,1.7385059009633956,16.79965595319867,10.745784953546524
1783339086809401900,3.04440185546875,3.0737618406698104,16.022336532461644,12.164031457281112
1783339086819374600,3.05437451171875,0.39015769384130833,14.016460820674896,10.06435401072502
1783339086829347600,3.06434765625,-3.118603145176172,13.06018885436654,9.783042329919338
1783339086839320600,3.074320556640625,-3.1650109683468934,12.707862440139055,10.972639067977667
1783339086849293800,3.0842939453125,-1.457144097405672,12.225787363970278,11.793762559127806
1783339086859265500,3.094265625,-0.5370239331915975,11.523886464571952,11.636921307599543
1783339086869238500,3.104238525390625,-0.19864844903573392,11.494006874614954,10.857447339177131
1783339086879211800,3.114211669921875,-1.1008594470717012,11.32187569949627,9.258458483844995
1783339086889184800,3.124184814453125,-1.6332374541535972,10.871017599368095,7.348821378585696
1783339086899157800,3.13415771484375,-1.3404478092610834,9.206148450893163,4.992092832255363
1783339086909130500,3.144130615234375,-0.9821991653777659,7.008306982704997,2.654393980565667
1783339086919103700,3.154103759765625,-0.7051319902740418,4.938432553738355,0.7123612108752131
1783339086929076700,3.16407666015625,-0.011167875224351882,2.9329145693480965,-0.6459183154135942
1783339086939049700,3.1740498046875,1.2494435962557793,1.212351006180048,-1.6253125063732266
1783339086949022700,3.184022705078125,2.523236036348343,-0.6748427966028452,-2.666293092674017
1783339086958995500,3.193995361328125,3.404559436917305,-2.4756512783527374,-3.768073015591502
1783339086968968700,3.20396875,3.8171921435475347,-4.01117917664349,-4.505791370563209
1783339086978941700,3.213941650390625,3.9227041898548602,-5.4913370698899024,-4.715103106302022
1783339086988913700,3.22391357421875,3.5868086859464645,-6.762575733846425,-4.546207844364643
1783339086998886700,3.23388671875,2.3627590586662293,-7.83716545202136,-4.437338596583903
1783339087008859600,3.243859619140625,0.6847427707832306,-8.354508825448155,-4.309306967693567
1783339087018832600,3.25383251953125,-1.039469158824533,-9.099519967776537,-4.534592809894681
1783339087028805600,3.2638056640625,-2.3965467619776724,-9.971361254251002,-4.935034143471718
1783339087038779000,3.27377880859375,-2.989471738350391,-10.352109460842609,-5.064693373563886
1783339087048751600,3.283751708984375,-2.679692672473192,-10.213836131662129,-5.083610255479813
1783339087058724600,3.293724609375,-1.8213222774684428,-10.033349800652266,-5.297162989789247
1783339087068697600,3.303697509765625,-0.7425556389350444,-9.947346756935119,-5.800400096452236
1783339087078670800,3.3136708984375,0.29329079934768376,-9.646068392899632,-6.276743935492634
1783339087088643800,3.323643798828125,1.1416635319512336,-9.10220058516264,-6.547693796759844
1783339087098616600,3.333616455078125,1.7341221329212189,-8.44258166117668,-6.584843669980764
1783339087108589600,3.343589599609375,1.8528455429792403,-7.891142541402578,-6.507855707368254
1783339087118562800,3.353562744140625,1.622484297209978,-7.333083711227774,-6.316805312246084
1783339087128534800,3.36353466796875,1.1217759053070098,-6.641983607307076,-5.988658815029263
1783339087138507500,3.373507568359375,0.38486207165122027,-5.759660089784861,-5.691285641738772
1783339087148480800,3.383480712890625,-0.8134019569873809,-4.97846528891921,-5.566807613676786
1783339087158453800,3.393453857421875,-1.5104127462565897,-4.123029778322577,-5.786462171992659
1783339087168426800,3.4034267578125,-1.708766742390394,-2.9366537558764216,-6.074938337600231
1783339087178399500,3.4133994140625,-1.905931821000576,-1.5935633231520652,-6.322762759345769
1783339087188372700,3.423372802734375,-1.8291585240520536,-0.036820787397027016,-6.3617217278152705
1783339087198345700,3.433345703125,-1.1357177022241056,1.4889678071677683,-5.30288370552361
1783339087208318700,3.443318603515625,0.2879039186775684,3.456195516130328,-2.518924018368125
1783339087218291700,3.453291748046875,0.8607714647971093,6.133408646747469,0.9167989108368754
1783339087228264400,3.463264404296875,-0.2259671024635434,8.957149140149355,4.493237009416521
1783339087238237700,3.47323779296875,-1.1236766974270342,12.410839979982375,7.295998719936609
1783339087248210700,3.483210693359375,-1.4589607914388179,15.172921012806892,8.872738334059715
1783339087258183700,3.49318359375,-2.305278491208702,14.252072242057322,8.18879336259067
1783339087268155600,3.50315576171875,-2.4837694106176493,12.440875052762031,8.006575677743553
1783339087278128600,3.513128662109375,-2.2809506901599463,11.428006169962883,8.962450753688811
1783339087288101600,3.5231015625,-0.8807622595548629,10.409205559027194,9.345597253593802
1783339087298074600,3.53307470703125,2.1420494383394715,10.656171902638674,9.518502335694432
1783339087308048000,3.5430478515625,3.8982606534719464,11.95157294794917,9.709712889814377
1783339087318020600,3.5530205078125,3.867352304989099,12.875946385693549,9.64558966947198
1783339087327993600,3.56299365234375,2.676434547460079,12.353881828963756,8.650722891831398
1783339087337966600,3.572966552734375,0.5326116697072982,10.731390517491102,6.642026277405023
1783339087347939800,3.58293994140625,-1.3820679597638548,8.74044174120128,4.736330895508826
1783339087357912800,3.592912841796875,-2.347056316491216,6.588344956099987,3.3272263141289353
1783339087367885600,3.602885498046875,-2.7158734084010123,4.529424467346072,2.210597197125852
1783339087377858600,3.612858642578125,-2.563072372174263,2.45464648424685,1.1532809775739907
1783339087387831800,3.622831787109375,-1.917963765708357,0.4087614181548357,0.20839403637200593
1783339087397804800,3.6328046875,-1.4235633148431777,-1.2651473613440989,-0.5101952552378177
1783339087407777800,3.64277783203125,-0.7180735241074114,-2.6810610382169484,-1.2157441557496786
1783339087417749800,3.652749755859375,0.3486182073593139,-4.0487908221572635,-1.83698424924165
1783339087427722800,3.66272265625,1.3358476219892501,-5.758365373799204,-2.4406913163915274
1783339087437695700,3.67269580078125,2.0835832208454605,-7.474521057397126,-3.5932448564738033
1783339087447668700,3.682668701171875,2.2442554288387297,-8.83050487396419,-4.897380412381887
1783339087457641700,3.692641845703125,2.021117704582214,-9.549866026729346,-5.962798982107639
1783339087467614700,3.70261474609375,1.6211644467830657,-9.597175474914907,-6.718828946578502
1783339087477587700,3.712587646484375,1.0363082105755805,-9.12657573248446,-7.350348149761557
1783339087487560700,3.722560791015625,0.7077800205647945,-8.348800969195365,-7.69014650632739
1783339087497533400,3.732533447265625,1.032377885389328,-7.638511011636257,-7.763463671472668
1783339087507506700,3.742506591796875,1.8309470149040221,-7.066534130746126,-7.9075909873783585
1783339087517479700,3.752479736328125,2.7431448616862295,-6.75048197594881,-8.039713392713665
1783339087527452700,3.76245263671875,3.541642679530382,-6.641915802767873,-8.046375188690423
1783339087537425700,3.77242578125,3.597396715456247,-6.485207237708568,-7.604272057425975
1783339087547398700,3.782398681640625,3.1072938156545162,-6.437829984983802,-6.997843456357717
1783339087557371600,3.79237158203125,2.322058799487352,-6.523577592635155,-6.50730391870439
1783339087567343600,3.802343505859375,1.6039561223506926,-6.592522534045576,-5.481199706757068
1783339087577316900,3.81231689453125,0.25531214715242384,-7.027912431406975,-5.020362064406275
1783339087587289600,3.82228955078125,-0.3366155618112534,-7.075469132351875,-4.724863160555064
1783339087597262600,3.8322626953125,-0.28882388306669887,-6.542700226256251,-3.5134719393178817
1783339087607235800,3.84223583984375,-0.49928456964492796,-6.106873106521368,-3.0983015309035777
1783339087617208800,3.852208740234375,-0.7704654631890356,-5.35392883310616,-3.001598521734774
1783339087627182000,3.86218212890625,-0.8323790446579455,-4.188381663677096,-2.7723101658940315
1783339087637154800,3.87215478515625,-0.6364180811405181,-3.2105987073063846,-2.9855168632447717
1783339087647127800,3.8821279296875,-0.05202493240013718,-1.8601795391291378,-3.2808909716725347
1783339087657100800,3.892100830078125,1.1698831528067588,1.8911504314541816,-2.6242417111471292
1783339087667074000,3.902073974609375,-0.1758836595200002,6.037073594108223,-0.9094806967779994
1783339087677047000,3.912047119140625,-1.6990541805408894,8.403918460783363,2.894209575639665
1783339087687019800,3.922019775390625,-1.4753298885680735,10.675645833915471,6.485227111452818
1783339087696992800,3.93199267578125,-0.7341912037588656,13.94127143191695,8.859471440729498
1783339087706966000,3.941966064453125,-0.6506079345345497,16.07569402863979,10.24904773029685
1783339087716939000,3.95193896484375,-2.7908625984117386,16.823066054880616,10.374832164782285
1783339087726912000,3.961912109375,-4.75151180576682,16.947319042015074,10.01836382844448
1783339087736884000,3.971884033203125,-1.7787284596279263,15.268768574190139,9.62842986035645
1783339087746857000,3.98185693359375,2.6147581357479095,13.497274449729918,9.75657400971055
1783339087756830000,3.991829833984375,5.3332794283092015,13.013399046140908,9.837075533401965
1783339087766803000,4.001802978515625,6.26470570717454,12.18794307874441,8.89380216487646
1783339087776776000,4.01177587890625,5.595206025165319,10.94420675421953,7.245614686611295
1783339087786749000,4.0217490234375,4.364024061787128,9.565682020020484,5.92372486282587
1783339087796722000,4.031721923828125,2.907493712365627,8.01150728892684,4.946191497302055
1783339087806695000,4.04169482421875,1.324594406569004,6.203966284051537,3.9389866316139694
1783339087816668200,4.051668212890625,0.28236959236077963,4.094704432070255,2.9064094242602585
1783339087826641000,4.061640869140625,-0.37338334037940946,1.8760557381749152,2.155642787145078
1783339087836614000,4.07161376953125,-0.7950479696512222,-0.31431963191628454,1.1218412986934185
1783339087846587000,4.0815869140625,-1.2721698073267935,-2.304218606892228,0.11411211687028408
1783339087856559900,4.091559814453125,-2.086975785893202,-3.9976246985435484,-0.8613368435949087
1783339087866533000,4.101533203125,-2.3288556200206276,-5.3083711970239875,-1.9202987845271824
1783339087876505900,4.111505859375,-2.0946751082241533,-6.281701265639066,-3.111113666203618
1783339087886478800,4.121478759765625,-1.6428922944664954,-7.106659220385551,-4.2816251800417895
1783339087896451800,4.131451904296875,-1.138787757319212,-7.89440241998136,-5.142558703532814
1783339087906424000,4.141424072265625,-0.6706149497747421,-8.592785666647552,-5.827122099161148
1783339087916396800,4.151396728515625,-0.21699089206457137,-9.060790716409683,-6.573802636006474
1783339087926369800,4.161369873046875,0.07159341009259224,-9.2329540402323,-7.19004419055879
1783339087936343000,4.171343017578125,0.1836404111266136,-9.303568960681558,-7.687894343486428
1783339087946316000,4.18131591796875,0.2826560811519623,-8.86183700081706,-7.747239681902528
1783339087956288800,4.191288818359375,0.38041269102692604,-8.175909331098199,-7.479574249133467
1783339087966261800,4.20126171875,0.4114402819752693,-7.693406969428062,-7.3746893948137755
1783339087976235000,4.211235107421875,0.6577344254136085,-7.1325412651389835,-7.1693304883539675
1783339087986208000,4.2212080078125,1.0587187798261641,-6.559184912589192,-6.7784156925350425
1783339087996181000,4.231180908203125,1.25604401743412,-6.145297237461805,-6.4258513778984545
1783339088006153700,4.24115380859375,1.1838462117075919,-5.858761100006103,-6.34864772670865
1783339088016127000,4.251126953125,0.9327531435549259,-5.534550773194432,-6.602935791510343
1783339088026100000,4.261099853515625,0.7474035173576324,-5.117119141849875,-7.083152088069915
1783339088036073000,4.271072998046875,0.6117793144464493,-4.694039275485277,-7.553136328950524
1783339088046046000,4.2810458984375,0.31685053863339124,-4.284499858695268,-7.842921823590993
1783339088056019000,4.29101904296875,-0.18823826031088828,-3.9212504839152094,-8.10309719286561
1783339088065992000,4.300991943359375,-0.6016504999462515,-3.439636595517397,-8.086576266175507
1783339088075964000,4.3109638671875,-0.9098993605814873,-2.7657576755106446,-7.593140422558784
1783339088085937000,4.32093701171875,-1.1958056757010518,-1.899868575438857,-6.799909731462598
1783339088095910000,4.330909912109375,-1.286692692067474,-1.0643436339706183,-5.458616119027138
1783339088105883000,4.3408828125,-0.4277531188726425,0.10104162289500236,-3.2451731770813463
1783339088115856000,4.35085595703125,1.5573273499056697,1.306121176767349,-0.8654469092622399
1783339088125828900,4.360828857421875,4.836579614460468,2.956235823702812,1.8599688189879058
1783339088135802000,4.370802001953125,6.892721870672703,4.9447091497898095,4.4710655096188185
1783339088145774800,4.38077490234375,4.42431515662074,6.113380588719249,6.495625755870342
1783339088155747800,4.390747802734375,0.9535203295126556,7.6433999527215954,8.966209229439496
1783339088165720800,4.400720947265625,-0.360955126363039,10.98503443917036,12.118545132869482
1783339088175694000,4.410694091796875,-1.74738025842309,12.971326329565047,13.413860837984084
1783339088185667000,4.4206669921875,-3.8985108288407324,12.209095756888388,12.162318808144331
1783339088195639800,4.430639892578125,-5.191036026453972,11.04051725693941,11.186097109740972
1783339088205612800,4.44061279296875,-3.4927088450133796,10.099804094290732,11.197692854988574
1783339088215586000,4.4505859375,-0.36382381366714833,9.539105563262105,11.534535284358263
1783339088225559000,4.46055908203125,1.9231974285781381,10.070256512767076,12.273750892150401
1783339088235532000,4.470531982421875,2.6727076358914372,11.155807185417412,12.278635157060622
1783339088245504000,4.48050390625,1.7738183296240866,11.570783824825286,10.389746825319527
1783339088255477000,4.49047705078125,0.694088179820776,11.190900710630416,7.490316007900238
1783339088265450000,4.500449951171875,-0.19030045353770256,9.94724972630143,4.174616173174977
1783339088275422700,4.510422607421875,-0.6653868398629128,8.339687103891372,1.6003659889042376
1783339088285396000,4.52039599609375,-0.483448702609539,6.553102377805113,-0.07970832748711108
1783339088295369000,4.530368896484375,0.22993688287734984,4.8329953262329095,-1.1661463043659925
1783339088305342000,4.540342041015625,0.9249661429405212,3.3094156398892403,-2.3065753991514444
1783339088315315000,4.55031494140625,1.559625982236862,1.8129209443479775,-3.6264281641513105
1783339088325288000,4.560287841796875,2.406701076245308,0.12471885108053683,-4.9899423762232065
1783339088335261000,4.570260986328125,3.2198166175067424,-1.6842092242389917,-5.908045647656917
1783339088345234000,4.58023388671875,3.549669334119558,-3.6111505155205723,-6.178379422852396
1783339088355207000,4.59020703125,3.3166414994895455,-5.368073678314685,-6.033905485466122
1783339088365180000,4.600179931640625,2.759880892431736,-6.826373375496268,-5.824629697823524
1783339088375153000,4.61015283203125,1.9904419958114623,-7.959984606960416,-5.650868875676393
1783339088385126000,4.6201259765625,1.006834205744788,-8.649886441007256,-5.491954909527301
1783339088395099000,4.630098876953125,-0.14239424503538756,-9.255392666533588,-5.461697718429565
1783339088405072000,4.64007177734375,-1.2016295595489441,-9.818644389176368,-5.526981214722991
1783339088415045000,4.650045166015625,-1.9912357765376567,-10.214334144312144,-5.525670716646314
1783339088425016800,4.660016845703125,-2.326869414639473,-10.335195735442637,-5.555656105065346
1783339088434989800,4.66998974609375,-2.123730522316694,-10.268564916193485,-5.801798272812366
1783339088444963000,4.679963134765625,-1.6765817981004714,-9.89226842831373,-6.132385148918629
1783339088454936000,4.68993603515625,-1.1301719046652317,-8.902959284800291,-6.046967796134949
1783339088464908800,4.69990869140625,-0.3901917787740007,-7.817785628768801,-5.800274424245953
1783339088474881800,4.7098818359375,0.45358434675429016,-6.946256476983428,-5.848800262483954
1783339088484855000,4.71985498046875,1.1594342395067214,-6.19256576911509,-5.938541908207536
1783339088494828000,4.729828125,1.702243478101492,-5.622012199026346,-6.039238078665733
1783339088504801000,4.739801025390625,1.9124878185153007,-5.2196606479138135,-6.101992348742485
1783339088514773800,4.749773681640625,1.6063094074785709,-4.873461776655912,-6.345079805094003
1783339088524747000,4.7597470703125,1.3607576068401337,-4.370931941479444,-6.523301698303222
1783339088534720000,4.769719970703125,1.2035832508999853,-3.6741800954073667,-6.642417907071113
1783339088544693000,4.77969287109375,0.8402689941901713,-2.7843934023976322,-6.784266756650805
1783339088554666000,4.789666015625,0.2920247249346226,-1.6952034964621066,-6.725794693937897
1783339088564639000,4.799638916015625,-0.06888005948066711,-0.3560825518906116,-6.291072905096411
1783339088574612000,4.809612060546875,0.14084873262643813,1.0051683914244174,-5.107759192830324
1783339088584585000,4.8195849609375,1.0726209023199975,2.046080880925059,-3.00952259273231
1783339088594558000,4.829557861328125,2.654057880479097,3.243475140991807,-0.8907339107319712
1783339088604530700,4.83953076171875,2.6485844175040723,4.801614684063196,0.847716022260487
1783339088614503200,4.849503173828125,1.4319151097334921,6.1847729232817885,2.9573540140777825
1783339088624476200,4.85947607421875,1.1336145924650132,8.699813962736725,5.581860805901885
1783339088634449200,4.86944921875,1.1045252761028705,11.408141778063774,8.244491868937015
1783339088644422100,4.879422119140625,-0.5294819933794439,13.077232343626022,10.312291829717159
1783339088654395100,4.88939501953125,-2.8420927271723744,14.09644445797205,11.322478926086426
1783339088664368000,4.8993681640625,-3.9955543220102783,14.707017319238185,11.019939748334885
1783339088674341000,4.909341064453125,-1.965894560662657,14.101077378469705,9.927471843641996
1783339088684314400,4.919314453125,0.00717106067314744,14.604510884487627,10.15257005431652
1783339088694287000,4.929287109375,0.8041232565104961,15.391824460494517,10.320742847198247
1783339088704260000,4.939260009765625,1.370675920394808,15.074966834533214,9.22260624921918
1783339088714233000,4.949233154296875,1.6139397562265396,13.549168303096293,7.646272293287515
1783339088724206300,4.959206298828125,1.668811164098978,11.165247213935851,6.032565176773071
1783339088734179000,4.969178955078125,1.5762661513924598,8.883712148016691,4.485111570627987
1783339088744152000,4.979152099609375,1.187225990338996,7.275512981268763,3.390638171331584
1783339088754125000,4.989125,0.9093710989236831,5.492432463911175,2.3832816222131252
1783339088764098000,4.99909814453125,0.8582277716636657,3.1823259680241343,1.0741939968556165
1783339088774071300,5.0090712890625,1.1778244672000409,0.6008943478167057,-0.09011632425487041
1783339088784044000,5.0190439453125,1.5493103399276733,-1.7032190451353788,-0.8764286142647266
1783339088794017000,5.02901708984375,1.9093676406681537,-3.7037966505140063,-1.5318617769986391
1783339088803989200,5.0389892578125,2.1539374445319175,-5.332094017916917,-1.9356103354275225
1783339088813962200,5.048962158203125,2.2556173653304574,-6.6297799592942,-2.3510119222491976
1783339088823935000,5.05893505859375,1.9472551805138587,-7.547059054863452,-2.9357161827653644
1783339088833908000,5.068907958984375,1.3464905965566634,-8.300187452673912,-3.592939736047387
1783339088843881200,5.078881103515625,0.6782470520883798,-8.880311399662494,-4.379309893724322
1783339088853854200,5.088854248046875,0.08484161698864773,-9.310826968985795,-5.131680166643858
1783339088863827200,5.0988271484375,-0.3614811595311388,-9.662864629399776,-5.562300949907303
1783339088873800000,5.108800048828125,-0.6750467947423457,-9.844975931262969,-5.7236097022384405
1783339088883773200,5.118773193359375,-0.7182108136862516,-9.9996030138731,-5.995678922924399
1783339088893746200,5.12874609375,-0.34674890635609623,-9.978239907848835,-6.336005687278509
1783339088903719200,5.13871923828125,0.2228267586112022,-9.565023848372697,-6.500922693234681
1783339088913692200,5.148692138671875,0.5125006095707416,-8.98348886554241,-6.763912535408139
1783339088923665200,5.1586650390625,0.5940805761486292,-8.281403257226943,-7.149995088765024
1783339088933638100,5.16863818359375,0.6554886923134327,-7.507867446681857,-7.574296605879068
1783339088943611100,5.178611083984375,0.6773802061259746,-6.693318657746911,-8.01499337747693
1783339088953584000,5.188584228515625,0.6684767687022686,-5.958455399945378,-8.261264724561572
1783339088963557000,5.19855712890625,0.6766998226463794,-5.321625815394521,-8.06117177580595
1783339088973529000,5.208529052734375,0.494385107165575,-4.819326866364479,-7.611591440528631
1783339088983502000,5.218502197265625,0.2933072024932131,-4.382238932913541,-7.397240833839773
1783339088993475000,5.22847509765625,0.014283303831145167,-3.9271997477084395,-7.149342177814245
1783339089003448300,5.2384482421875,-0.3874982653737068,-3.439446041381359,-6.56784285081923
1783339089013421000,5.248421142578125,-0.6007949060302228,-2.8221096773296592,-5.810405942159891
1783339089023394000,5.25839404296875,-0.605435936769098,-1.894793756392598,-4.812317864385247
1783339089033367000,5.268366943359375,-0.6858885067522525,-0.9620675008445978,-3.641630993980169
1783339089043340300,5.27834033203125,0.33674072256088255,-0.12281038711071014,-2.468820263288915
1783339089053313000,5.28831298828125,3.769374745839834,1.164735268524289,-1.782574613662064
1783339089063286000,5.2982861328125,7.86333098989129,3.530588201552629,-0.3328761560872197
1783339089073259000,5.308259033203125,6.058342592108249,4.912250064733624,2.7414257828086614
1783339089083232300,5.318232177734375,0.7918389444768429,4.568004665631055,5.200246922391653
1783339089093205200,5.328205322265625,-1.5508197215773165,7.296157709890603,8.226515482741593
1783339089103178000,5.338177978515625,-3.1532723074972626,11.709765594536066,11.780912429904937
1783339089113151000,5.34815087890625,-5.194095414024591,14.981971739971637,14.015772253888844
1783339089123124200,5.358124267578125,-6.269176130586862,16.086972963023186,13.63086108239889
1783339089133097200,5.36809716796875,-5.5690884180903435,16.663002918696403,11.146678122544287
1783339089143070200,5.3780703125,-2.4967501804828642,16.589163775503636,8.701497970300913
1783339089153043000,5.38804296875,2.084545343875885,16.68465945470929,8.67723914283514
1783339089163016200,5.39801611328125,5.498973848378658,15.777966635084152,9.287344386589526
1783339089172988200,5.40798828125,4.757671497440338,11.604087544012069,7.746336595582962
1783339089182961200,5.417961181640625,3.004164280569553,9.22161490009427,6.414566013774276
1783339089192934100,5.42793408203125,1.3969523712933063,7.598864060902595,5.189206472939253
1783339089202907100,5.4379072265625,0.5755306278489529,6.540381427919864,3.6743981220722195
1783339089212880100,5.447880126953125,0.0897943257588893,5.215215943464637,2.3103180928111073
1783339089222853000,5.45785302734375,-0.24538579642176628,3.37799174798727,0.8528630297601223
1783339089232826000,5.467826171875,-0.09532733690142631,1.1814654540508984,-0.6253145033240318
1783339089242799000,5.477799072265625,0.3192062349140644,-0.7809288434058428,-1.5661322953909635
1783339089252772000,5.487772216796875,1.1929027938663959,-2.744324426859617,-2.2823411216050387
1783339089262745000,5.4977451171875,2.0556588566094636,-4.6354386179566385,-2.727202027145028
1783339089272718000,5.507718017578125,2.3466817840903995,-6.269324014624953,-2.910925440379977
1783339089282691300,5.51769140625,2.163992390078306,-7.402775087091326,-3.4811160223752258
1783339089292664000,5.5276640625,1.4093874899744987,-8.035057675862312,-4.502210881727934
1783339089302637000,5.537636962890625,0.6000882921308278,-8.411105741938949,-5.423590982875227
1783339089312610000,5.547610107421875,-0.1532049317193683,-8.775056542986631,-6.134338621073961
1783339089322583300,5.557583251953125,-0.7279308281898498,-9.151177674299477,-6.644939534503221
1783339089332556300,5.567556396484375,-0.9165823454767466,-9.459827443885803,-6.793492265635728
1783339089342529000,5.577529052734375,-0.6212374631434678,-9.591414427170157,-6.96753307376802
1783339089352501200,5.587501220703125,0.0765677005069796,-9.522993801894783,-7.164212999209761
1783339089362474200,5.59747412109375,0.7194418167859316,-9.270681421080232,-7.368833654522895
1783339089372447200,5.607447265625,1.198704758143425,-8.927942334887385,-7.592740609586238
1783339089382420000,5.617419921875,1.5929378847301006,-8.355518879273534,-7.603426254251599
1783339089392393200,5.627393310546875,1.9663643701314926,-7.469246331864595,-7.452092367967963
1783339089402366200,5.6373662109375,2.1856530177444218,-6.597328473022579,-7.321102766054868
1783339089412339200,5.647339111328125,2.152594213229418,-5.847165939280391,-7.385715815740824
1783339089422312000,5.65731201171875,1.672322971612215,-5.286597756633162,-7.52270611937344
1783339089432285200,5.66728515625,1.2012281391412019,-4.687836913713813,-7.880762017163634
1783339089442258200,5.677258056640625,1.1303472612321377,-3.8677801750123497,-8.09388454336226
1783339089452231200,5.687231201171875,0.9440367541134357,-3.115686380946636,-8.186545291402936
1783339089462204200,5.6972041015625,0.5829331957230344,-2.3712094916254283,-8.242986725071072
1783339089472177200,5.70717724609375,0.1603389939835295,-1.4579215115189552,-8.040738059586285
1783339089482150100,5.717150146484375,-0.32168000461645424,-0.19628654220998287,-7.662144985201954
1783339089492123100,5.727123046875,-0.8783926078140735,1.267816288292408,-7.106186342176795
1783339089502096100,5.73709619140625,-0.9873708689272404,2.891576012265682,-5.6984723383724685
1783339089512069000,5.747069091796875,0.530530771780014,4.773250759366154,-2.9423633656948804
1783339089522042000,5.7570419921875,3.7725159664750096,7.516229032313824,-0.3787660928636789
1783339089532014000,5.76701416015625,7.478864055037498,10.527560720294714,3.3432369532093404
1783339089541987000,5.776987060546875,7.442329098844528,9.479926229062675,8.878962907662988
1783339089551960300,5.786960205078125,5.058114579695463,7.588610962435602,10.911284143304824
1783339089561933000,5.79693310546875,2.48168822042942,6.684483609384298,12.31123861902356
1783339089571906000,5.806906005859375,-1.0056883236452936,6.6741667980313295,13.616975180387497
1783339089581879000,5.816879150390625,-4.085526269358397,7.599493590977787,14.553320795476436
1783339089591852300,5.826852294921875,-6.34088995218873,8.0217621409595,14.264967963987589
1783339089601825300,5.8368251953125,-5.0384629537642,7.714805731287598,12.245277661859989
1783339089611798500,5.846798583984375,-1.0770106617115438,8.621003460872172,11.876817274433373
1783339089621771500,5.856771484375,0.5121743002258241,10.922812084013223,12.130465872287749
1783339089631744500,5.86674462890625,-0.9154198775686323,13.13872404642105,9.75360639207661
1783339089641717800,5.8767177734375,-1.7626994081079959,14.724265391159056,7.676888965347409
1783339089651690800,5.886690673828125,-1.1876901737846433,15.086998633110522,6.525337003523111
1783339089661663500,5.89666357421875,-0.49346864990778266,13.877480220007895,5.051677824646235
1783339089671636500,5.906636474609375,0.16433723330684005,11.922621578752993,3.838941034018993
1783339089681609700,5.916609619140625,0.6629132893562316,10.056924737507105,2.969112256410718
1783339089691582700,5.926582763671875,1.016633130703494,7.960767281770706,1.9686282234102486
1783339089701555700,5.9365556640625,1.6656255198001861,5.487530078822374,0.6867915930718184
1783339089711527700,5.946527587890625,2.5209470486283303,2.7883073609709736,-0.6818938841581345
1783339089721500700,5.956500732421875,3.285980403766036,0.1067687683701515,-1.7808032200753687
1783339089731473700,5.9664736328125,3.8626533335179087,-2.1943395975470543,-2.4753841518491506
1783339089741446700,5.97644677734375,4.167404926621914,-4.132092790222168,-2.953212676489353
1783339089751419600,5.986419677734375,3.722721131214499,-5.788123383203149,-3.519121051120758
1783339089761392600,5.996392578125,2.5290479374974963,-6.953940017223358,-4.017964306738972
1783339089771365600,6.00636572265625,1.4860773464232682,-7.803486469781398,-4.78698585473001
1783339089781338600,6.016338623046875,0.7549334014058112,-8.479418230664729,-5.7260915821820495
1783339089791311600,6.0263115234375,0.18469781122505663,-8.991708412355184,-6.496257039511203
1783339089801284600,6.03628466796875,-0.29713355584833767,-9.294082170411944,-7.1590411495298145
1783339089811257600,6.046257568359375,-0.42282676838636396,-9.522524430817365,-7.530919820967316
1783339089821230600,6.056230712890625,-0.015018047846481202,-9.835067116189002,-7.762870966276526
1783339089831203600,6.06620361328125,0.7501011589437723,-10.23694111291766,-8.044018396431207
1783339089841176800,6.0761767578125,1.3980284760922193,-10.544363386535643,-8.433381286633015
1783339089851149600,6.086149658203125,1.845089522024989,-10.694982987070082,-8.951745819801092
1783339089861122600,6.09612255859375,2.163621803200245,-10.42795702124834,-9.437781031772493
1783339089871095600,6.106095458984375,2.2555893082797525,-9.28095731590092,-9.132290018478036
1783339089881068800,6.11606884765625,2.12485748052001,-7.890158206540345,-8.720813496145606
1783339089891040500,6.12604052734375,1.8583014702975749,-6.822722451773285,-8.363229307520388
1783339089901013500,6.136013427734375,1.155548337984085,-6.05944207778275,-7.914812170803547
1783339089910986800,6.14598681640625,0.4024339321663603,-5.251940284749865,-7.6066680126518005
1783339089920959700,6.155959716796875,-0.10319737615678459,-4.372617118087411,-7.34599696881473
1783339089930932500,6.165932373046875,-0.8269301316022872,-3.6174031461745497,-7.232713703984022
1783339089940905500,6.175905517578125,-1.5707412504911422,-2.7676363288640973,-6.936188087433576
1783339089950878700,6.185878662109375,-1.9553928942620753,-2.0188491751283406,-6.559214723205566
1783339089960851700,6.195851806640625,-2.1961935548506677,-1.2584715368419885,-5.792936920964718
1783339089970824700,6.20582470703125,-1.7151074897192418,-0.23000644098222253,-4.672556342473626
1783339089980797400,6.21579736328125,1.1760533658742904,1.4271411733299493,-3.409363037806749
1783339089990770700,6.225770751953125,6.46373774870038,3.8881285510361194,-1.4753233126968144
1783339090000743700,6.23574365234375,8.635511294174194,5.630362094220518,1.7006465642988682
1783339090010716700,6.245716552734375,5.179822558522224,4.795816811439395,3.7843215550810094
1783339090020689700,6.255689697265625,0.28055647852420806,4.55438179847002,4.228044981023669
1783339090030662700,6.26566259765625,-3.1915397865712642,6.937067792877555,6.109602239224314
1783339090040635600,6.2756357421875,-5.462931059616804,10.372029966843128,9.83326094354987
1783339090050608600,6.285608642578125,-5.6725148902952665,13.039942185151576,13.195684535527228
1783339090060581600,6.29558154296875,-3.794962776082754,13.826346245098113,13.904921184641122
1783339090070553600,6.3055537109375,-1.118595887031406,13.20605161576271,12.279430106830596
1783339090080526600,6.315526611328125,2.0059962694264946,12.185808404803275,10.829420683610438
1783339090090499600,6.32549951171875,4.173351852327585,12.091796242153643,10.968672502434252
1783339090100472600,6.33547265625,3.7635163752004503,12.801882786095142,11.040585061478614
1783339090110445800,6.34544580078125,1.574603771138191,13.14434013273716,9.862719677746295
1783339090120418600,6.35541845703125,-0.2726493586614728,13.136252687871455,8.117471755176782
1783339090130391600,6.3653916015625,-1.095449039395526,12.444875520575046,5.7448734395414585
1783339090140364500,6.375364501953125,-0.9637832187213003,11.0722053576231,3.946718102648854
1783339090150337800,6.385337890625,-0.6816846983868629,9.230168793427943,3.189121034991741
1783339090160310800,6.395310791015625,-0.05165303034782409,6.839462574172019,2.8704098901182413
1783339090170283500,6.405283447265625,0.7768213350217789,4.029785677435994,2.6149913599818944
1783339090180256500,6.415256591796875,1.5626748484134674,1.449710148012638,2.580036366456747
1783339090190229800,6.425229736328125,2.5442531054139135,-0.9202677559912205,2.2434937968164683
1783339090200202800,6.43520263671875,3.3015760323047636,-3.0876170552819966,1.5898270592331885
1783339090210175700,6.44517578125,3.3888720384418964,-4.83976525875926,0.5404857640832662
1783339090220148500,6.4551484375,2.5765631373882294,-5.96828121291101,-0.6244727918028831
1783339090230121700,6.465121826171875,1.4287351645231245,-6.7465762006819245,-1.8441332442134617
1783339090240093700,6.47509375,0.4176157557398081,-7.297679220369457,-3.213248929554224
1783339090250066400,6.48506640625,-0.24888123732209205,-7.682615526300668,-4.392284526109695
1783339090260039700,6.495039794921875,-0.39422845041155813,-7.934367935144901,-5.353944030675292
1783339090270012700,6.5050126953125,-0.1359825878947973,-8.138692237859964,-6.114219962152839
1783339090279985700,6.514985595703125,0.31154023033082484,-8.277032202535867,-6.697529553440213
1783339090289958700,6.524958740234375,0.6605635113596916,-8.306156005689502,-7.13732265419662
1783339090299931600,6.534931640625,0.8068179024219513,-8.351151331713796,-7.401862648421526
1783339090309904600,6.544904541015625,0.832499456167221,-8.408828444656729,-7.58430712776184
1783339090319877600,6.554877685546875,0.9475100562471895,-8.400085166230797,-7.691431869962811
1783339090329850600,6.5648505859375,1.042100237980485,-8.248710363414883,-7.733199466112255
1783339090339823600,6.57482373046875,1.0101882654130458,-7.881342447400093,-7.638546667471528
1783339090349796600,6.584796630859375,0.9126853380382061,-7.223872225880623,-7.397214530354738
1783339090359769600,6.59476953125,0.7263514500439167,-6.656517159572243,-7.000379696837067
1783339090369742600,6.60474267578125,0.40556934411525725,-6.402537137806415,-6.61433630644679
1783339090379715600,6.614715576171875,0.12288579043447971,-6.345339917334914,-6.404737862721086
1783339090389688800,6.624688720703125,-0.10792905345433391,-6.249029414615035,-6.3401499474763865
1783339090399661600,6.63466162109375,-0.2669862183332443,-6.03029021757841,-6.298325068181753
1783339090409633500,6.644633544921875,-0.2790940047562122,-5.690608180868625,-6.372662224024534
1783339090419606800,6.654606689453125,-0.30742110457420346,-5.320356233850121,-6.561243598684668
1783339090429579800,6.664579833984375,-0.31601591444015503,-4.73780535197556,-6.645668433299661
1783339090439552500,6.674552490234375,-0.08455226038694381,-3.8859184737712145,-6.549460806432366
1783339090449525500,6.684525390625,0.40558454168438907,-2.8105408200889825,-6.101804132694006
1783339090459498800,6.694498779296875,1.4876128854274748,-1.4967618220448493,-5.467475717309117
1783339090469471700,6.7044716796875,4.1769992689192295,0.911959946373105,-4.374330351746082
1783339090479444700,6.71444482421875,4.797359364706278,4.999097742581367,-2.9696921021252867
1783339090489417500,6.72441748046875,1.1877939994852988,8.542974464774131,-0.9102285925358533
1783339090499390700,6.734390625,0.3537140691936016,12.100016958010196,3.5744916406869884
1783339090509363700,6.74436376953125,2.4427181460440157,16.07448757545948,9.12648103993833
1783339090519336700,6.754336669921875,6.368833605647087,17.617607828575373,15.612328329116105
1783339090529309700,6.764309814453125,5.110519305193424,13.619948058718442,19.93864488379955
1783339090539282700,6.77428271484375,2.3369018560931085,10.138361496222018,20.276428393411635
1783339090549255700,6.784255615234375,1.9340123987115918,8.301661032357812,18.588619098854064
1783339090559228700,6.794228759765625,1.1560815680779517,7.62554339351356,15.208830530577897
1783339090569201700,6.80420166015625,-2.1808989550851283,7.922973849949241,11.193232952970266
1783339090579174400,6.81417431640625,-3.3941549472808834,8.481260059139132,9.120992963916063
1783339090589146600,6.824146728515625,-2.6455940035164356,9.651187051087618,8.65732155944407
1783339090599119600,6.83411962890625,-1.815883885806799,10.79905827857256,8.146248936849831
1783339090609092600,6.844092529296875,-1.5533118306539953,10.806128655350207,6.262476925209164
1783339090619065300,6.8540654296875,-1.348600720578432,10.244503657126426,3.906197291690111
1783339090629038300,6.864038330078125,-0.8669593596518039,9.240756822937726,1.644925846120715
1783339090639011300,6.87401123046875,0.07529109556674957,7.744766569787264,-0.606050415405631
1783339090648984300,6.883984375,1.2660557083606718,5.847932247477769,-2.5967770733773707
1783339090658957300,6.893957275390625,2.5793793638527394,3.619601533001661,-3.895430398482084
1783339090668930300,6.903930419921875,3.765810915878415,1.2431576478540896,-5.186400183346867
1783339090678903300,6.9139033203125,4.543271206390857,-1.1059504866003989,-6.2547565600901835
1783339090688876300,6.923876220703125,4.907148357680439,-3.1517098804861305,-6.4131146459221835
1783339090698849300,6.933849365234375,4.943073657542467,-4.695229362052679,-5.778206384822726
1783339090708822300,6.943822265625,4.417580879929662,-5.880989882948994,-5.206680170309543
1783339090718795300,6.953795166015625,3.2287101180583235,-6.879095496380328,-4.857455813750624
1783339090728768300,6.963768310546875,1.4848352374076843,-7.718113540661334,-4.6977854762762785
1783339090738741500,6.973741455078125,-0.5478530779808759,-8.425477381640672,-4.484662365555763
1783339090748714200,6.98371435546875,-2.412555062970519,-9.090988870796561,-4.245565440145135
1783339090758686200,6.993686279296875,-3.5192841327279805,-9.648525138401984,-4.118831157588959
1783339090768659500,7.003659423828125,-3.592029050943255,-10.01133203011155,-3.9642636962115763
1783339090778632400,7.013632568359375,-2.873822913432121,-10.245028557783364,-4.024727225002646
1783339090788605200,7.023605224609375,-1.609940457457304,-10.49916347784996,-4.724364271122217
1783339090798578200,7.033578125,-0.1948427366098389,-10.572745431411265,-5.727483913323283
1783339090808551400,7.043551513671875,0.9856827697098255,-10.50388173854351,-6.667716014456748
1783339090818524400,7.0535244140625,1.7825252215623855,-10.104293222403525,-7.326154204225539
1783339090828497400,7.063497314453125,2.1804712311923504,-8.95038855997324,-7.540918067890405
1783339090838470100,7.07347021484375,2.1784002701371907,-7.327337861052155,-7.246730538898706
1783339090848443400,7.083443359375,2.0862842964977024,-6.164844233974814,-7.296438280397653
1783339090858416400,7.09341650390625,1.98169930190742,-5.418368279790878,-7.547292863619327
1783339090868389400,7.103389404296875,1.8159516903460025,-4.745981644168496,-7.654788777220249
1783339090878362400,7.1133623046875,1.535207580295205,-4.07470150848329,-7.5451640348970885
1783339090888335000,7.123335205078125,0.8631114520519971,-3.3200995309889314,-7.2672314751356835
1783339090898308400,7.133308349609375,0.29493336065663023,-2.3699404946029183,-6.808214618471265
1783339090908281300,7.14328125,0.4344634666988626,-1.3070926521480082,-6.404537371712923
1783339090918253000,7.153253173828125,0.5409294892627745,-0.23057108912765978,-6.114747200897336
1783339090928226300,7.163226318359375,0.13364859198927878,1.0309095664024353,-5.383643587890267
1783339090938199300,7.17319921875,-0.4842671063203364,2.5721254472017288,-3.947668535241484
1783339090948172300,7.18317236328125,-1.2045734309811145,4.628190546524524,-1.6195014820069074
1783339090958145300,7.193145263671875,-0.4755682515580207,8.20697842310071,1.7653075447797775
1783339090968118300,7.2031181640625,1.189629471284151,11.592612210273742,6.162612529399991
1783339090978091300,7.21309130859375,2.8396143543601036,12.660264822661876,10.852799221110343
1783339090988064300,7.223064208984375,2.686743175506592,11.06297224985361,14.059687383460998
1783339090998037200,7.233037353515625,0.8997276567876339,8.71142373650968,14.579946936595439
1783339091008010500,7.243010498046875,-1.247038727071136,7.112481642928719,13.695118742775916
1783339091017983200,7.252983154296875,-0.8605635211348533,6.645305445206165,12.00401742093563
1783339091027956200,7.262956298828125,1.0908649995408952,8.233639051011204,9.703940151631832
1783339091037929200,7.27292919921875,0.26130364265218375,10.62833229407668,7.188540800258517
1783339091047902500,7.28290234375,-1.7148995460569858,12.253152340757847,5.294475358140469
1783339091057875500,7.29287548828125,-2.8402514832198618,13.282280284440517,5.5107285835802555
1783339091067848200,7.30284814453125,-2.7293980758845806,13.331036424303054,6.21582389510572
1783339091077821200,7.3128212890625,-1.9585247625470161,12.006004795360564,5.898237370347976
1783339091087794200,7.322794189453125,-1.1054688405632973,10.026872129070759,5.52136863553822
1783339091097766400,7.332766357421875,-0.27059849054627116,7.946377521890401,5.360734421467781
1783339091107739100,7.3427392578125,0.5605647485811263,5.876079899075627,4.3648792173117394
1783339091117712400,7.35271240234375,1.26852122169137,3.8144291085749864,2.694713131472468
1783339091127685400,7.362685302734375,1.8908020564079284,1.4445716160804032,1.1766168449759482
1783339091137658400,7.372658447265625,2.3679613034844396,-0.988057682147622,0.05610474905967712
1783339091147631400,7.38263134765625,2.7666660225272177,-2.9317583850502964,-0.3703670978307724
1783339091157604000,7.39260400390625,2.741733825844526,-4.397824040058255,-0.48644729990363117
1783339091167577300,7.402577392578125,2.4161013572752474,-5.554190124166012,-0.9185971924304962
1783339091177550300,7.41255029296875,1.5205051012039184,-6.353303443560004,-1.9535680169224738
1783339091187523300,7.4225234375,0.6225041220784187,-7.162299274542927,-3.4530782608926294
1783339091197496300,7.432496337890625,-0.17536942638754843,-7.859010204082727,-5.007182264837622
1783339091207469300,7.44246923828125,-0.7010580188333988,-8.295646886634826,-6.28115239958465
1783339091217442300,7.4524423828125,-0.9476210423409939,-8.551343649190663,-7.079154542866349
1783339091227415300,7.462415283203125,-1.1484253542363643,-8.67550486638844,-7.673823732557892
1783339091237388300,7.47238818359375,-1.2394354124605655,-8.63659967393279,-8.168498762580752
1783339091247361300,7.482361328125,-0.9565151274144649,-8.515182202485203,-8.619823895698785
1783339091257334300,7.492334228515625,-0.4354302293717861,-8.352810204836725,-9.010083442479372
1783339091267306200,7.50230615234375,0.1519160700857639,-8.046573926132917,-9.28243440271616
1783339091277279500,7.512279541015625,0.5346177488327026,-7.4552844420075415,-9.514410682466625
1783339091287252200,7.522252197265625,0.7555249375581741,-6.353661755478382,-9.47042365670204
1783339091297225200,7.53222509765625,1.1250737047433852,-5.153646499258279,-9.103209469944238
1783339091307198200,7.5421982421875,1.4023977772176266,-4.272610683459043,-8.722751770731806
1783339091317171500,7.55217138671875,1.2981237482726573,-3.420235729476809,-8.085328896462917
1783339091327144400,7.56214453125,0.9017595279414207,-2.6544635386705395,-7.330792969942093
1783339091337117200,7.5721171875,0.529249499797821,-2.0925860269904137,-6.646636986070871
1783339091347090200,7.582090087890625,0.21356552072577178,-1.714897207969427,-6.004299451753496
1783339091357063200,7.592063232421875,-0.23721534944772718,-1.468925136092305,-5.268868038675189
1783339091367036400,7.602036376953125,-0.5489047789908945,-1.193217851164937,-4.307646925526857
1783339091377009400,7.612009521484375,-0.049605011776834726,-0.7303805594295263,-3.3485774374544617
1783339091386982100,7.621982177734375,1.8680501263737677,0.2411842530786991,-2.2226737116277215
1783339091396955100,7.631955078125,5.073803147214651,1.564905968466401,-0.38794776270687575
1783339091406928400,7.641928466796875,7.16063514072299,2.8485744904071093,1.791104833859205
1783339091416901400,7.6519013671875,5.686306099760532,3.3080998811155555,3.712366325938701
1783339091426874400,7.661874267578125,1.4689546544477343,3.1333857037663457,5.173139135235548
1783339091436846300,7.671846435546875,-1.7048808408677576,4.95354945884943,7.50553052816689
1783339091446819300,7.6818193359375,-3.785656018555164,8.783949459016323,11.057356163537502
1783339091456792300,7.691792236328125,-4.729585220640898,12.214384510946273,14.454233813780546
1783339091466765300,7.701765380859375,-2.9835458554327485,13.19299456579089,14.850517443156242
1783339091476738300,7.71173828125,0.2635042214363813,11.859261743998527,13.316882811266183
1783339091486711300,7.721711181640625,1.7956459844201802,10.307407564806937,12.157293088936806
1783339091496684300,7.731684326171875,1.41844392600283,9.554642739611863,10.409869575893879
1783339091506657300,7.7416572265625,1.2422817418023944,9.570102174550295,9.144503018841148
1783339091516630500,7.751630615234375,0.7085363918900489,10.16146530843377,9.003480683213471
1783339091526603300,7.761603271484375,0.15967501364946365,10.621347257494925,9.043287792944907
1783339091536576300,7.771576171875,0.16017887151837348,10.17554877884388,7.9039248660862444
1783339091546549200,7.78154931640625,0.49102162208184597,8.881115117260814,6.0837330539524554
1783339091556522500,7.7915224609375,0.7573918274085968,7.354008425834775,4.545647287872433
1783339091566495500,7.80149560546875,0.9280559256494044,5.897251866441965,3.4964684898078437
1783339091576468200,7.81146826171875,1.171298937888816,4.027223133471608,2.2151748803049323
1783339091586441200,7.821441162109375,1.728631134289503,1.739461155861616,0.6324211204588412
1783339091596414200,7.831414306640625,2.5558184555232524,-0.45279169853925705,-0.650088879096508
1783339091606387500,7.841387451171875,3.1008009465038775,-2.3923376198500392,-1.796146335157752
1783339091616359200,7.851359130859375,3.2715164096057414,-4.097656267613172,-3.0827941651701924
1783339091626332200,7.861332275390625,3.4602795705735683,-5.752057798087597,-4.244535512575507
1783339091636305400,7.871305419921875,3.4915889010727406,-7.09140670619607,-5.292768554222583
1783339091646278400,7.8812783203125,3.0749785229831934,-8.057673412296175,-6.347297481143475
1783339091656251100,7.891251220703125,2.275116431048512,-8.667964534011483,-7.127651739531755
1783339091666224000,7.90122412109375,1.3121756545007228,-8.846324374386668,-7.632654686823487
1783339091676197400,7.911197265625,0.2510276017010212,-8.729888198482989,-7.848464260149002
1783339091686170400,7.92117041015625,-0.5712058965176343,-8.493110071408749,-8.005545165652036
1783339091696143400,7.931143310546875,-0.8938555498838424,-8.268470710417628,-8.300228953728078
1783339091706116000,7.9411162109375,-0.4091331740766763,-7.993281311884522,-8.718142231109738
1783339091716089300,7.95108935546875,0.5937216797083615,-7.543833078554272,-8.956247807395458
1783339091726062300,7.961062255859375,1.4795271941274404,-7.028968662461638,-8.766508494871854
1783339091736035300,7.971035400390625,2.0878338640272616,-6.6549430421233176,-8.19289962886572
1783339091746008300,7.98100830078125,2.4196330385327336,-6.499238101148605,-7.263714406925439
1783339091755981300,7.990981201171875,2.3643290844619274,-6.383098277842998,-6.533279486960172
1783339091765954300,8.000954345703125,1.8573498686611651,-6.2108431840837,-6.200596515357494
1783339091775927300,8.01092724609375,1.1217325776219367,-5.931171671700477,-6.155147015824913
1783339091785899500,8.0208994140625,0.5117641485223546,-5.458118690899014,-6.216771989610791
1783339091795872300,8.030872314453125,0.24241996888611464,-4.753168340802192,-6.192642926004528
1783339091805845200,8.04084521484375,0.03146828392054885,-4.029596876865625,-6.2391328745007515
1783339091815818200,8.050818359375,-0.41611415553782133,-3.337978302028775,-6.427436601263285
1783339091825791200,8.060791259765624,-0.6735516608137637,-2.5952730985552073,-6.6464136987090106
1783339091835764500,8.070764404296876,-0.4848434449035674,-1.7201894691586495,-7.0280644070982925
1783339091845737200,8.0807373046875,-0.20015198546648025,-0.4705202474534511,-7.440749720698594
1783339091855710200,8.090710205078125,-0.32060894131883977,1.0099842672735453,-7.276538232663273
1783339091865683200,8.10068310546875,0.17159107689261435,2.659793209260702,-5.63392183252871
1783339091875656400,8.110656494140626,0.6334944487787783,4.695312948682904,-3.4377240398943423
1783339091885629400,8.12062939453125,-0.3184137693621218,7.075825106182694,0.4735691136300563
1783339091895602200,8.130602294921875,-1.8746799197770654,9.309351635736226,6.107219143480062
1783339091905575200,8.1405751953125,-2.2546410676442084,11.286577591621874,11.106292336142063
1783339091915548400,8.15054833984375,-1.5273498525321483,14.370702128612994,16.54877097483873
1783339091925521400,8.160521484375,0.31858094262257214,16.272317839980126,21.171301011383534
1783339091935494100,8.170494140625,2.4471350857034326,14.634834711080789,20.752470034635067
1783339091945467100,8.180467041015625,4.539246188658476,10.483277341932057,15.940589977145194
1783339091955439400,8.190439453125,4.480251563376188,7.0604679625749585,11.03762504262924
1783339091965412400,8.200412353515626,1.8995882971927522,6.931101577949524,9.825074129962921
1783339091975385000,8.210385009765625,-0.395219945666939,7.480731602475046,10.183407091128826
1783339091985358300,8.2203583984375,-1.8612065440893173,7.371614225152134,9.36857539359927
1783339091995331300,8.230331298828125,-2.5666858864963054,7.380769006988405,8.195780152738093
1783339092005304300,8.24030419921875,-2.5797277388989923,7.494635624665022,6.961046049836278
1783339092015277300,8.25027734375,-2.201600528460741,7.237658174648881,5.542575674217939
1783339092025250300,8.260250244140625,-1.468370570949465,6.29169074473381,3.8086809203118084
1783339092035223300,8.270223388671875,-0.6269570098340511,4.580499405544996,2.0762077236413954
1783339092045196300,8.2801962890625,0.3543910186070949,2.6728046665251255,1.3855004184305668
1783339092055169300,8.290169189453126,1.5596785892069338,0.6248392870277166,0.6266735167175531
1783339092065142300,8.300142333984375,3.0088357795119283,-1.3993050718992948,-0.5351905802845954
1783339092075115300,8.310115234375,4.072193325054645,-3.035332741293311,-1.9026386246740816
1783339092085088300,8.320088134765625,4.102408430576324,-4.188845189535618,-3.2687013521850106
1783339092095061200,8.330061279296874,3.2104093222141263,-4.866663787078857,-4.468020442834496
1783339092105034200,8.3400341796875,1.8227789060175419,-5.241836239364743,-5.391378566056489
1783339092115007500,8.350007568359375,0.3845183727800846,-5.374329816100001,-6.28863252620697
1783339092124979200,8.359979248046875,-0.8087772197961807,-5.30073734114468,-6.690431704133749
1783339092134952200,8.3699521484375,-1.296305885195732,-5.420207185655832,-6.931970761999487
1783339092144925400,8.379925537109376,-0.8738415203809737,-5.751392612177133,-7.143853517270088
1783339092154898400,8.3898984375,0.21773732651770114,-6.071360479113459,-7.06011081970036
1783339092164871200,8.39987109375,1.1084119082778692,-6.350279711824655,-7.076511334881186
1783339092174844200,8.40984423828125,1.5149842919558285,-6.788988524475693,-7.4265253805130715
1783339092184817400,8.4198173828125,1.8058727794021368,-7.2371391192108385,-7.6755895731866355
1783339092194790400,8.429790283203126,2.0703233417779208,-7.627907784557342,-7.927272423925995
1783339092204763400,8.439763427734375,2.112829189074039,-7.85536687914431,-8.099726839649676
1783339092214736100,8.449736083984375,1.8838228650450706,-7.672159598737955,-7.877288203573227
1783339092224709400,8.45970947265625,1.5569091244935989,-7.195576105722784,-7.446174083834886
1783339092234682400,8.469682373046876,1.1018740309417248,-6.720825673353672,-7.32124772748351
1783339092244655400,8.4796552734375,0.6031307285666465,-6.056368077164888,-7.251326634517311
1783339092254628400,8.48962841796875,0.1880102967739105,-5.402487989091873,-7.118293544077873
1783339092264601300,8.499601318359375,-0.10212174628190696,-4.807009236583113,-6.790676039171219
1783339092274574300,8.50957421875,-0.3056897507369518,-4.161076308122277,-6.265121886759996
1783339092284546300,8.51954638671875,-0.3268039235014468,-3.4807506961941717,-5.708351342830062
1783339092294519300,8.529519287109375,-0.08922638967782258,-2.7206045285761356,-5.178789123821258
1783339092304492300,8.5394921875,0.29835151680335403,-1.8563181875258683,-4.730935466206073
1783339092314465300,8.54946533203125,0.8303681432269513,-0.6508698003411293,-4.251473202884197
1783339092324438300,8.559438232421876,0.8805832497261464,0.6780506527334451,-3.6082016025871035
1783339092334411300,8.569411376953125,1.1026780408009886,1.8939999756664037,-2.059423177579045
1783339092344384300,8.57938427734375,2.834078347542882,2.945164979112148,0.26790859387516974
1783339092354357200,8.589357177734374,5.620182645511627,3.9935809761106964,2.5166385377794502
1783339092364330200,8.599330322265626,4.208978461503983,4.449201760596036,6.1824336666792625
1783339092374303200,8.60930322265625,-2.7879461264431473,4.247783700716496,10.06877650334239
1783339092384276500,8.6192763671875,-6.137676241064072,5.391939122548699,12.6282189945817
1783339092394249200,8.629249267578125,-5.549471863472461,8.659059343022108,15.913216817051172
1783339092404222200,8.63922216796875,-2.5500913100481033,11.091008257770538,16.94918717397451
1783339092414195200,8.6491953125,1.1342895691171289,9.251310365656018,11.867903315615653
1783339092424168400,8.65916845703125,4.970348617959022,8.017466489592193,9.507774020931125
1783339092434141400,8.669141357421875,7.248940616163611,9.52096434189379,10.832729077506064
1783339092444114200,8.6791142578125,5.900222406685352,10.763888765513896,10.476694456410407
1783339092454086400,8.68908642578125,2.622043324320018,10.896002403020859,8.02765704421699
1783339092464059400,8.699059326171875,0.013226269058883189,10.955973179858923,6.63755643851459
1783339092474032400,8.709032470703125,-0.8132441360771655,10.555495021402836,5.8439598367154595
1783339092484005000,8.719005126953125,-0.7409680044174194,9.23047274481058,4.833622518220544
1783339092493978400,8.728978271484374,-0.3386193759143352,8.088935396522283,4.5331291670829055
1783339092503951400,8.738951416015626,0.26965850628241894,7.1866732528209685,4.480735547500848
1783339092513924400,8.74892431640625,0.5621228647433221,6.279133460977673,4.393884362521767
1783339092523897300,8.7588974609375,0.7176118248797952,5.163974416527152,3.8563334828466176
1783339092533870300,8.768870361328124,0.8990273995637893,3.77555489577949,2.645001882842183
1783339092543843300,8.77884326171875,1.4403320788145064,2.268477431425452,1.1747744319796563
1783339092553816300,8.78881640625,2.1422925994455815,0.6694529202580451,-0.18964695806503296
1783339092563789300,8.798789306640625,2.258776121622324,-0.9657119948267936,-1.3834773881703615
1783339092573762300,8.80876220703125,2.1197405758976937,-2.580545485022664,-2.640652455461025
1783339092583735300,8.8187353515625,2.1299404828727244,-4.069139782702923,-3.874318636870384
1783339092593708300,8.828708251953126,1.8753963974833487,-5.072720612674951,-4.686623446270823
1783339092603681300,8.838681396484375,1.2732803989171981,-5.694891557276248,-5.221911641710997
1783339092613654000,8.848654052734375,0.7637830628156661,-6.035766018640994,-5.644436796802282
1783339092623626000,8.8586259765625,0.5736550432354212,-6.250401287490129,-5.850567856678366
1783339092633599000,8.868598876953126,0.5795306572705506,-6.391649248567223,-6.060158701619505
1783339092643572000,8.878572021484375,0.6357242536574602,-6.421174618259072,-6.473533751049637
1783339092653545200,8.888545166015625,0.8055342923521995,-6.519413458693027,-6.96318598447442
1783339092663518000,8.89851806640625,1.2452063970774412,-6.738922471058368,-7.422949860113858
1783339092673491000,8.908490966796874,1.8030092066645622,-7.052098778158426,-7.892931178385019
1783339092683464000,8.9184638671875,2.3811942945450544,-7.386043147999048,-8.323796876320243
1783339092693437200,8.928437255859375,2.903859155255556,-7.69721512953937,-8.77377351743877
1783339092703410200,8.93841015625,3.1262270641833543,-7.750142417606711,-9.139752024921775
1783339092713383000,8.9483828125,3.1104204232424495,-7.592415030893683,-9.27631738114059
1783339092723356000,8.95835595703125,2.718620661282539,-7.194935469731688,-9.141965609318017
1783339092733329200,8.9683291015625,1.8762468768328426,-6.429042867416143,-8.676554667702316
1783339092743302100,8.97830224609375,0.7623463080108165,-5.453980860441923,-8.181686745455861
1783339092753275100,8.988275146484375,-0.3077583737045526,-4.627259987676143,-7.840527621930837
1783339092763247900,8.998247802734374,-1.1208657316595316,-4.053331388196349,-7.807632483544945
1783339092773220000,9.00822021484375,-1.5973247215121984,-3.580339782193303,-7.859362670782208
1783339092783193000,9.018193115234375,-1.6575252154529094,-3.064959817793965,-7.9774244020611045
1783339092793166000,9.028166015625,-1.4836182628333567,-2.4435955134004352,-8.067851107439399
1783339092803139000,9.03813916015625,-1.2210919465184211,-1.7266987049221991,-8.23288034159839
1783339092813112000,9.048112060546876,-0.876539673423767,-0.9177303464680909,-8.639214824867247
1783339092823085000,9.0580849609375,-0.41081498968377705,0.21485504907965658,-8.820635806378721
1783339092833058000,9.06805810546875,0.3698490653060376,1.8910335270762442,-8.354310672527552
1783339092843031000,9.078031005859375,1.0837481532730162,4.295569534242153,-6.985773663857579
1783339092853004000,9.088004150390624,1.5720609547875821,6.933841232046484,-3.342969534444809
1783339092862977000,9.09797705078125,4.15146501469016,8.704781814277172,3.0522657559156414
1783339092872950000,9.107949951171875,11.674963161224126,10.054133060961961,9.35158743391931
1783339092882923000,9.117923095703125,13.65568338896632,8.132143839129805,14.653451733267307
1783339092892896000,9.12789599609375,3.140071465140581,4.670754261487722,14.60945009445548
1783339092902869000,9.137868896484376,-4.779881867943704,5.517144880363345,17.661526465278865
1783339092912842000,9.147842041015625,-5.793070776477456,8.300411324557661,23.853134203016758
1783339092922815000,9.15781494140625,0.029838965685665606,11.56701015150547,29.503358935570716
1783339092932788200,9.167788330078125,4.167952331371605,9.876053791093826,24.88886256787777
1783339092942760000,9.177760009765626,2.3026693316236138,7.0674068219274275,13.048047165673971
1783339092952733000,9.18773291015625,-0.5822051371768117,7.960861389794945,7.951206257221102
1783339092962706200,9.1977060546875,-0.8336332825027406,10.461212809640168,8.1104428794533
1783339092972679200,9.20767919921875,-0.9931721025519072,12.697566671574116,9.670696053677796
1783339092982652000,9.21765185546875,-0.6068799980975688,13.593185139477253,10.208497108721733
1783339092992625000,9.227625,0.5874222873032092,13.171060966402292,9.21943463344574
1783339093002598100,9.23759814453125,1.5826374399900436,11.860052017593382,7.052796112772822
1783339093012571100,9.247571044921875,2.094106952947378,9.785864401602744,4.071146446350217
1783339093022544100,9.257544189453125,2.537310154408216,7.260114921128749,0.9310399098962545
1783339093032516900,9.267516845703126,2.8707915829122066,4.4923821461528535,-1.951142835602164
1783339093042490000,9.277489990234375,3.380036405557394,1.7903174828737973,-4.73612602058649
1783339093052463000,9.287463134765625,3.7046003681123256,-0.7755863133341073,-7.418962836304306
1783339093062436000,9.29743603515625,3.430948262149095,-2.8675048163264987,-8.754231781622767
1783339093072409000,9.3074091796875,2.195956385093927,-4.324048025229573,-8.044432237929104
1783339093082382000,9.317382080078126,0.9732792152106762,-4.991472654530406,-6.500674855953455
1783339093092355000,9.32735498046875,-0.22789339435100553,-5.534779321253299,-5.480295451393723
1783339093102327000,9.3373271484375,-1.677953086453676,-6.271659179574251,-5.382586187791824
1783339093112300000,9.347300048828124,-2.621903331327438,-7.012444228640199,-5.809993269705772
1783339093122273000,9.35727294921875,-2.727525267750025,-7.489867679610848,-6.133116970324516
1783339093132246000,9.36724609375,-2.348447624719143,-7.902344903418421,-6.4714399936407805
1783339093142219000,9.377218994140625,-1.5271195509076119,-8.184120110082626,-6.859501738116145
1783339093152192000,9.38719189453125,-0.633078123062849,-8.363408171218634,-7.062709019500017
1783339093162165200,9.397165283203124,0.12929152929093687,-8.287400451815127,-7.2792130048304795
1783339093172138000,9.407137939453126,0.8852724304556846,-7.873206487217545,-7.436988322338461
1783339093182111000,9.417111083984375,0.778719862119481,-7.27842799193263,-7.075703525629639
1783339093192084000,9.427083984375,0.3329189723156392,-6.674407036527991,-6.3572226628303525
1783339093202057200,9.43705712890625,-0.6551682281874119,-6.2476826761811965,-5.74054388590455
1783339093212030000,9.447030029296876,-1.9059971413217485,-5.599881031239033,-4.87477052116692
1783339093222003000,9.4570029296875,-2.721233474129438,-4.99174328816533,-4.697048978695273
1783339093231976000,9.466975830078125,-2.8202704792037605,-4.759834812954068,-5.580642662283778
1783339093241949200,9.47694921875,-2.630417477172613,-4.682458143284917,-7.011150681698322
1783339093251921000,9.4869208984375,-2.0336356792412698,-4.849844754225015,-8.962833031004667
1783339093261894000,9.496893798828125,-1.2691827543400227,-4.789530863037705,-10.421609113526344
1783339093271867100,9.5068671875,-0.8159995722651481,-4.133591504347324,-11.02889696177244
1783339093281840000,9.516840087890625,-0.6600419717036188,-3.52972953889668,-10.936467684400082
1783339093291813000,9.526813232421874,0.8107458895206451,-2.874414449584484,-10.19121396548748
1783339093301785900,9.536785888671876,4.3274914436817165,-1.420806125089526,-8.251770335507393
1783339093311759000,9.546759033203125,8.295559208351373,0.7737684502571821,-5.135756037780642
1783339093321732000,9.556732177734375,10.836773968982696,2.3338567893087863,-0.9111801941722631
1783339093331705000,9.566705078125,9.924085123813152,2.3298037145256996,2.994989040467143
1783339093341678000,9.576677978515624,3.9751366801425814,1.4735335066705941,6.255168648022413
1783339093351651000,9.586651123046876,-6.599201281157136,1.267360945740342,8.603300046399236
1783339093361624000,9.5966240234375,-12.096771692478656,1.756442101278901,10.006424384325742
1783339093371597000,9.60659716796875,-9.20192352667451,4.801516484385728,12.69921969947815
1783339093381570000,9.616570068359374,-3.2797724890366196,9.329645651224254,14.525332718354463
1783339093391543000,9.62654296875,0.8438190148219465,10.693975271332263,14.86053381025791
1783339093401516000,9.63651611328125,4.60803740081191,11.529897687685489,12.846164995414018
1783339093411488000,9.646488037109375,7.17385819491148,15.013119742429256,10.454909325581788
1783339093421461000,9.6564609375,5.814422192063927,16.438550020188092,9.20529680249989
1783339093431434200,9.666434326171874,4.6923181507810945,16.912759769809245,8.657138019570707
1783339093441407000,9.676406982421875,6.1717304863572116,16.326678375720977,8.172237949109077
1783339093451380000,9.6863798828125,7.887596247097849,13.443435307514667,5.660813346585631
1783339093461353000,9.69635302734375,6.896625307852029,11.220334894907474,5.647217951953411
1783339093471326200,9.706326171875,5.137486807096004,8.912492836821079,5.717630627828836
1783339093481299200,9.71629931640625,3.4075089343726632,6.181348794052004,4.783503273311257
1783339093491272000,9.72627197265625,1.6213595309637485,4.006350441312789,3.957093366190791
1783339093501245000,9.736244873046875,0.01024082350730896,2.3455519032776353,2.7324235611855983
1783339093511218200,9.74621826171875,-1.5912791577376424,0.8651046716958284,1.319030927222967
1783339093521191200,9.756191162109374,-2.6069582756519316,-0.42642917679250236,0.1993307322114706
1783339093531164200,9.7661640625,-2.5960709709346292,-1.767581919452548,-1.2981956444650888
1783339093541136100,9.77613623046875,-1.981203042823076,-3.7492701154440637,-2.7364497479617595
1783339093551109000,9.786109130859375,-1.5607529404401779,-4.820324645230174,-3.257491975906491
1783339093561082000,9.79608203125,-1.5791034206449985,-5.572886641329527,-2.4584049599975346
1783339093571054800,9.806054931640626,-1.5239397518277167,-6.531251780524849,-1.6687258239030838
1783339093581028000,9.816028076171875,-0.8174071740407496,-7.753545504048466,-1.7348989625126123
1783339093591001000,9.8260009765625,0.5843547164261341,-8.654723944166301,-2.444460021275282
1783339093600974000,9.83597412109375,1.6890858903646468,-8.84165696709752,-3.4429122561872005
1783339093610947000,9.845947021484376,2.2971359551548955,-8.61190713122487,-4.50592785642445
1783339093620920000,9.855920166015625,2.6502561501085755,-8.37240279405713,-5.749760627061129
1783339093630893000,9.86589306640625,2.6825843022614717,-7.9517954552859065,-6.949468424767256
1783339093640866000,9.875865966796875,2.7603473408997057,-7.3468205601572985,-8.0624214836061
1783339093650838000,9.885838134765624,2.9054806189775464,-6.760753194594383,-9.067598058336973
1783339093660811000,9.89581103515625,2.8896225401103495,-6.305930867010354,-10.06691187851429
1783339093670784000,9.905783935546875,2.1210615953683853,-5.642997119387984,-10.476309841006994
1783339093680756700,9.9157568359375,0.21870354120135305,-4.717467497345805,-10.257138682293892
1783339093690730000,9.92572998046875,-1.4076362623929977,-3.8078368707031007,-9.610962008205055
1783339093700703000,9.935702880859376,-2.7714459502801296,-3.1063626722842455,-9.137012370824813
1783339093710676000,9.945676025390625,-3.444873619388044,-2.7784365398198365,-9.208570709604023
1783339093720649000,9.95564892578125,-3.449370054024458,-2.4005507369220256,-9.129841456282138
1783339093730621700,9.96562158203125,-3.39126185618788,-2.202322412994504,-8.913678247213364
1783339093740595000,9.975594970703124,-3.3507729016721246,-2.252518814793229,-8.722263694953918
1783339093750568000,9.98556787109375,-3.152508921909332,-2.3129279830485583,-8.457327394887804
1783339093760541000,9.995541015625,-2.9618074863553043,-2.5039970828711984,-8.167415058997273
1783339093770514000,10.005513916015625,-2.6525334473907947,-2.680114112755656,-7.802810177955031
1783339093780487000,10.01548681640625,-2.3506724611617624,-2.783590269321203,-7.0619959027945995
1783339093790460000,10.0254599609375,-1.3695362488403915,-2.5266993285447357,-6.005712241160869
1783339093800431900,10.035431884765625,1.8408264577530324,-1.4975281302422285,-4.422029676032066
1783339093810405000,10.045405029296875,8.213837202954291,0.5685048208653927,-1.4867477930307387
1783339093820377900,10.0553779296875,13.426894507080316,2.940910828799009,3.1254911511242387
1783339093830350800,10.065350830078126,10.8156902644217,3.8244817160338163,7.428483528843522
1783339093840323800,10.07532373046875,2.7854689226746556,3.409900213423371,10.109117866080998
1783339093850297000,10.085297119140625,-5.712258287140727,2.2454157047897576,10.858207217633723
1783339093860270000,10.09527001953125,-6.582116290843486,3.435954107612371,12.279093422222136
1783339093870242800,10.105242919921874,-2.7382044826745986,7.229905076304077,13.44564713834524
1783339093880215800,10.1152158203125,1.6886048288494349,10.692271974545717,12.67312430423498
1783339093890189000,10.12518896484375,7.328283617469668,10.862123514294623,5.943919509592652
1783339093900162000,10.135162109375,5.541963095277548,11.6024988135159,6.750428784456849
1783339093910135000,10.145135009765625,-1.3277683604300021,14.729540116691588,14.377428806519507
1783339093920107800,10.155107666015626,-0.06815145294517279,13.776744886583089,11.426975073349475
1783339093930080800,10.165080810546876,3.3344095036312935,11.925738249468802,7.927755239006877
1783339093940054000,10.175053955078125,3.9862683150097724,9.943133523154259,6.396561570528149
1783339093950026000,10.18502587890625,3.972037837344408,8.709258667430282,7.780140080985427
1783339093959998700,10.194998779296874,4.204509791657328,7.299884621459245,9.35451764215231
1783339093969972000,10.204971923828126,3.7116704526290296,5.532329005491733,9.512729597511887
1783339093979945000,10.214945068359375,2.4820678673967715,3.909188290199637,9.026320876052974
1783339093989918000,10.22491796875,1.270332070505619,2.7872072907745835,7.952574622964859
1783339093999891000,10.234890869140624,0.18380290821194648,1.8998896182268856,5.9446723737865685
1783339094009864000,10.244864013671876,-0.6843503373995423,0.8848135807722807,3.110833680218458
1783339094019837000,10.2548369140625,-1.2002267070136963,-0.03175239809155464,0.41976796533763405
1783339094029810000,10.264809814453125,-1.530168417084217,-0.34150282239615914,-1.3536971669346094
1783339094039783000,10.274782958984375,-1.195023512347415,-1.006661260330677,-3.061571344399452
1783339094049756000,10.284755859375,-0.06328735404014588,-1.5643465810179709,-3.793783795431256
1783339094059729000,10.29472900390625,1.3906442110598087,-2.1350497887104747,-4.302079939049482
1783339094069702000,10.304701904296875,2.185492274224758,-2.9200071569800374,-5.145009603816271
1783339094079675000,10.3146748046875,2.332622279077768,-3.628048458829522,-5.426549248158931
1783339094089646800,10.324646728515624,2.4131413384258744,-4.234667614033818,-5.312715363708138
1783339094099619800,10.334619873046876,2.044320885515213,-4.785581248629093,-5.507904758331179
1783339094109592800,10.3445927734375,1.3305986154198646,-5.281147674533725,-6.035971770346165
1783339094119566000,10.354566162109375,0.7759422871649265,-5.610715728986263,-6.654837828183174
1783339094129539000,10.3645390625,0.3774690387904644,-5.8464399630934,-7.048537870806455
1783339094139511800,10.37451171875,0.411304672896862,-6.026454000416398,-7.310205524465442
1783339094149484800,10.38448486328125,0.6669920831024646,-6.225696469822526,-7.6576622868299475
1783339094159458000,10.3944580078125,0.9331015186011791,-6.547480446270108,-8.286016888502239
1783339094169431000,10.40443115234375,0.8046002263724803,-6.803354318958521,-9.055067662587762
1783339094179404000,10.414404052734374,0.265108734023571,-6.7759834969520565,-9.580051321634649
1783339094189376800,10.424376708984376,-0.4733446572244167,-6.478743010130525,-9.719816935199498
1783339094199349800,10.434349853515625,-1.3159049041569233,-6.044441492527723,-9.6889851590842
1783339094209323000,10.444322998046875,-2.0457985568523407,-5.508095896989107,-9.399734501972794
1783339094219296000,10.4542958984375,-2.4308476755082604,-4.915415835288167,-8.907311050269007
1783339094229267700,10.464267822265626,-2.3452830232083794,-4.2175852540686725,-8.512692723757029
1783339094239241000,10.474240966796875,-1.9329986916244029,-3.5539226076498625,-8.337813711234928
1783339094249214000,10.4842138671875,-1.445862824934721,-2.826198407948017,-8.207562360468506
1783339094259187000,10.49418701171875,-1.020805521017313,-1.9618565373182295,-8.003463098680973
1783339094269160000,10.504159912109374,-0.617357991361618,-1.0532423942416906,-7.610328873246908
1783339094279133000,10.5141328125,-0.07401223473735154,-0.22482231634259223,-7.210694764399528
1783339094289106000,10.52410595703125,0.8005762315534055,0.6381798301160335,-6.590453911077976
1783339094299079000,10.534078857421875,1.922913204809278,1.5680582950174808,-5.381116115239262
1783339094309052000,10.544052001953125,3.393663948893547,2.4538895283997055,-3.1421962022095915
1783339094319025200,10.554025146484374,5.44691749792695,3.3164813404917717,-0.06766542299389838
1783339094328998000,10.563997802734375,6.290344006299972,3.6914983099550005,3.328666283804178
1783339094338971000,10.573970947265625,3.4964001007467505,2.520388830223679,6.166407830029725
1783339094348944000,10.58394384765625,-0.542397735184431,1.6789871056765318,8.426817105811834
1783339094358917000,10.593917236328124,-2.995514525645971,2.988710690850019,10.923834997320174
1783339094368888800,10.603888916015626,-4.120891012728214,6.063405136194825,14.034700241720676
1783339094378861800,10.61386181640625,-3.670799805319309,10.02572880425453,16.652964339762924
1783339094388835000,10.6238349609375,-0.7592468806907534,11.614003373348712,14.83531987402439
1783339094398808000,10.63380810546875,2.9111764925315975,11.007148071300982,11.279074668645858
1783339094408780800,10.64378076171875,4.815115386149287,10.126402178359031,8.707222193166613
1783339094418753800,10.65375390625,5.370829114502668,9.736297529879211,7.396112706592678
1783339094428726800,10.663726806640625,4.046465301819145,9.392120519837736,7.549857745671272
1783339094438700000,10.673699951171875,2.2577868183240293,8.898344484481214,8.465344697126746
1783339094448673000,10.683673095703124,0.9668949210010468,7.669533341887592,8.805167603611945
1783339094458645800,10.693645751953126,0.2735655967235565,6.7037395139962435,8.959737987598777
1783339094468618800,10.70361865234375,0.19505378554463385,5.955848432317376,9.154786512446403
1783339094478592000,10.713592041015625,0.5757680898666382,4.9435132180035115,8.579185595840215
1783339094488565000,10.72356494140625,0.6085702892720699,4.201235300031304,7.82875418202877
1783339094498538000,10.7335380859375,0.5034779296815395,3.806244048553705,7.0294690131992095
1783339094508510000,10.743510009765625,0.4705039539057761,3.3818197818428275,5.546592508643865
1783339094518483000,10.75348291015625,0.6605810470163822,2.212359822884202,2.7415853572845457
1783339094528456000,10.7634560546875,0.9584417115628718,0.8396925825417041,-0.07751812396645545
1783339094538429000,10.773428955078124,1.0615116254150867,-0.0935761093199253,-2.067517636707425
1783339094548402000,10.78340185546875,1.36585580676198,-1.0939712949931621,-3.904846461603045
1783339094558375000,10.793375,1.6286638626277445,-2.1854320684701203,-5.451437605699897
1783339094568348000,10.803347900390625,1.4503420161753893,-3.1320547474235294,-6.136960201749205
1783339094578321000,10.81332080078125,1.101694582721591,-3.794458918213844,-6.154840141832828
1783339094588294100,10.823294189453126,1.4335411035001278,-4.1820419392615555,-6.051354632917046
1783339094598267000,10.833266845703125,2.1556384032309053,-4.425338069927692,-6.0454527153968804
1783339094608239900,10.843239990234375,2.302195576632023,-4.8548242962032555,-6.410132999762892
1783339094618212900,10.853212890625,1.9644599978148936,-5.521241794288158,-7.121822302725911
1783339094628186000,10.86318603515625,1.544758667972684,-6.029798634669184,-7.811817075753211
1783339094638159000,10.8731591796875,1.0941828919172287,-6.2602259314119815,-8.308934238231181
1783339094648130800,10.883130859375,1.068034889703989,-6.416642820048332,-8.800090446478128
1783339094658104000,10.89310400390625,1.2109136668533087,-6.648886226302385,-9.361265947368741
1783339094668077000,10.9030771484375,1.325816057318449,-6.88177728281021,-9.688218266364931
1783339094678050000,10.913050048828126,1.1880150218248366,-6.990142964982986,-9.69150211034119
1783339094688023000,10.92302294921875,0.9340203870117664,-6.8951301008582115,-9.676699678006768
1783339094697995800,10.932995849609375,0.5873755255520343,-6.438942330139875,-9.54625660406053
1783339094707969000,10.942968994140625,0.24966447838796302,-5.6562008843541145,-9.22989406813979
1783339094717942000,10.95294189453125,-0.052501756131649015,-4.743892562934756,-8.770703023952246
1783339094727915000,10.9629150390625,-0.34351529472973197,-3.91618647852391,-8.517744746449589
1783339094737888000,10.972887939453125,-0.7262461630385368,-3.1523277201235294,-8.463501115086673
1783339094747861000,10.982861083984375,-1.282148765027523,-2.453976622161269,-8.430714113250374
1783339094757834000,10.992833984375,-1.8342881420254706,-1.7893457152321934,-8.200296168857813
1783339094767807000,11.002806884765626,-2.1785727040946483,-1.1923179797157644,-7.688882770001888
1783339094777780000,11.012780029296875,-2.2728373802006243,-0.874191648992896,-7.2124804787725205
1783339094787752000,11.022751953125,-2.181568086518347,-0.7588403457164764,-6.81277330468893
1783339094797725000,11.032724853515624,-1.692589806832373,-0.3506009056091308,-5.8255906518101686
1783339094807698000,11.042697998046876,-0.29778000052571296,0.41683658806085583,-4.138178247615695
1783339094817671200,11.052671142578125,2.7472476208299397,1.5142238289773464,-1.8297569283366202
1783339094827644200,11.06264404296875,7.877634240531921,3.5158927367240187,2.1300071183681486
1783339094837617000,11.072616943359375,8.4347876462996,4.675232283684611,7.32087538703978
1783339094847590000,11.08258984375,3.171112207831442,3.8629502706378696,9.93900913670063
1783339094857563100,11.092563232421876,0.5385641483709216,3.47549409084022,9.266755187547206
1783339094867536100,11.1025361328125,0.4064971264846623,5.209192445391416,9.271777399623394
1783339094877509000,11.112509033203125,0.4559419792637229,8.269113684496283,11.921444351667166
1783339094887481900,11.12248193359375,0.7976955615505575,10.945786132365464,14.529168350994587
1783339094897455000,11.132455078125,2.118786636173725,11.804882503557204,15.437365729963778
1783339094907428000,11.142427978515625,3.043616877774894,11.36961827840209,15.222037218153476
1783339094917401000,11.152401123046875,2.604533386592567,11.015146668839455,13.54906308915615
1783339094927373000,11.162373046875,2.5894682116687298,10.781536650407313,11.466986765742302
1783339094937346000,11.172345947265624,2.048819365978241,10.244516516608,10.521064344012737
1783339094947319000,11.182319091796876,1.0232005994603037,9.074673111289739,9.890639950329065
1783339094957292000,11.1922919921875,0.08730740431398153,7.729787027320265,9.06519976502359
1783339094967264800,11.2022646484375,-0.6700850806817412,6.550585426548123,8.183290088999271
1783339094977238000,11.212238037109374,-1.0152516862824559,5.452937488868832,7.348745975261926
1783339094987211000,11.2222109375,-0.9304008813403546,4.4513650761097665,6.274105988204479
1783339094997184000,11.23218408203125,-0.6627778264082967,3.4147371320605275,4.795519289797544
1783339095007157000,11.242156982421875,-0.2368259117387235,2.277662608399987,3.4346500392764803
1783339095017130000,11.2521298828125,0.33590025314874944,0.978881857523322,2.322521740823984
1783339095027103000,11.26210302734375,1.0340450148839504,-0.5741337666630745,1.2573819880396127
1783339095037076000,11.272075927734376,1.5660428635418415,-2.320990293473005,-0.1187643265902996
1783339095047049000,11.282049072265625,1.8782395119547843,-3.7693092793881893,-1.8975380866646765
1783339095057021000,11.29202099609375,2.2413339884340764,-4.890633860731125,-4.21810343272388
1783339095066994000,11.301993896484374,2.257108480671048,-5.7250867890536785,-6.297682678624987
1783339095076967000,11.311966796875,1.849561699002981,-6.158999599599838,-7.496206819504499
1783339095086940200,11.321940185546875,1.2241291222572326,-6.0823348775923245,-7.935650376170873
1783339095096913200,11.3319130859375,1.0091799651533364,-5.7934875405848025,-7.576900066375732
1783339095106886000,11.341885986328125,1.09190501011312,-5.588146754303574,-7.083290619757771
1783339095116859000,11.35185888671875,1.1667098565328866,-5.519174924886227,-7.125477318102121
1783339095126832000,11.36183203125,1.3418699510186909,-5.678218070372939,-7.714595303407311
1783339095136805000,11.37180517578125,1.7815940781921147,-5.917630637603998,-8.288397646158932
1783339095146778000,11.381778076171875,2.2437638459295033,-6.203093008348345,-9.135594320720434
1783339095156750800,11.391750732421874,2.4726637869745494,-6.493924797171354,-9.796341956475377
1783339095166723800,11.401723876953126,2.5768068830162285,-6.656372782665491,-10.124469748991727
1783339095176697000,11.411697021484375,2.278471002173424,-6.672179423606395,-10.448269156914948
1783339095186669000,11.4216689453125,2.0313871696621177,-6.4490621576160185,-10.719539920699596
1783339095196642000,11.43164208984375,1.829468174523115,-5.888685113626718,-10.855043785166739
1783339095206615000,11.441614990234376,1.6084586944669483,-5.023012871176004,-10.320238989329338
1783339095216588000,11.451588134765625,1.3772656740486622,-4.202058891373873,-9.33295462964177
1783339095226561000,11.46156103515625,1.0328098470658063,-3.6310479329064487,-8.49862971161306
1783339095236534000,11.471533935546875,0.6150842012107371,-3.129776281097531,-7.785439356437325
1783339095246507000,11.481507080078124,0.3413607835769653,-2.5896497057154773,-7.208588147509098
1783339095256480000,11.49147998046875,0.2193336557984352,-1.9397271230965851,-6.942679787540436
1783339095266453000,11.501452880859375,0.2475578797638416,-1.0888736795932055,-6.94104838694632
1783339095276426000,11.511426025390625,0.5512427204191684,0.2619447170346975,-6.997422600597143
1783339095286399200,11.521399169921875,1.0739105037391186,2.5309575705111027,-6.6719000221431255
1783339095296372000,11.5313720703125,1.840477059793472,5.576688956221938,-5.45685787718296
1783339095306345000,11.541344970703125,3.1029598781034347,8.314284367087483,-2.3152578873008487
1783339095316317200,11.551317138671875,5.135929640781879,8.964492488649487,4.951053550380468
1783339095326290000,11.5612900390625,4.668205746048689,7.796725305083394,12.024086395496129
1783339095336263000,11.571262939453124,-1.0086248154886066,4.746190318483114,15.238883139014243
1783339095346236000,11.58123583984375,-4.803687106423079,3.141231741091609,15.048125589358806
1783339095356209200,11.591209228515625,-3.5550860984712838,3.0540532238543032,12.215111656177044
1783339095366182100,11.60118212890625,-1.0593068088471889,3.589684533643722,9.204484901595116
1783339095376155000,11.61115478515625,1.3077072769150138,4.033068936890364,6.907590938502549
1783339095386128000,11.6211279296875,4.161034514807165,5.318575780174136,6.881616539290547
1783339095396101000,11.63110107421875,6.53539078002572,8.276329022702575,8.32038969822526
1783339095406074000,11.64107421875,3.8986511140942572,10.868072778087853,7.421782569900155
1783339095416047000,11.651047119140625,0.5723433761149644,10.860286946517228,6.878237418246269
1783339095426019800,11.661019775390624,0.13230623746961354,10.620209777897596,9.260621799358725
1783339095435992800,11.670992919921876,0.6457999497309327,10.498504137158394,11.694368118917941
1783339095445965000,11.680965087890625,1.1496925976932049,9.929480260854959,12.38065760768652
1783339095455938000,11.69093798828125,1.1629948545977473,8.805510717961191,11.558031895279884
1783339095465910800,11.700910888671874,0.6370065485529601,7.386899472567439,9.948887556636333
1783339095475884000,11.710884033203126,0.19030030740723014,5.96268558486104,7.953283648017049
1783339095485857000,11.72085693359375,0.18814824393987656,4.419181885385513,5.768051486033201
1783339095495830000,11.730830078125,0.1115395629685372,2.770930694234371,3.412127241823077
1783339095505803000,11.740802978515624,-0.035061961030960084,1.3425795605927704,1.4851123007833957
1783339095515776000,11.75077587890625,0.40221418846845625,-0.14744740023911,0.0822352156162262
1783339095525749000,11.7607490234375,0.9540227991420775,-1.6279554220974444,-0.8728355582088232
1783339095535722000,11.770721923828125,1.2704746938467024,-3.1734856589645144,-2.0738743122577667
1783339095545695000,11.780695068359375,0.9426806633293628,-4.4848242781192065,-3.0929438032627106
1783339095555668200,11.790668212890624,0.7936766812980175,-5.50561050991416,-4.36541814649403
1783339095565640000,11.800639892578126,0.588871901589632,-6.087969084087014,-5.624766466170549
1783339095575613000,11.810613037109375,0.27518004618287084,-6.247885505276918,-6.054018299168348
1783339095585586200,11.820586181640625,0.32862346707880496,-6.209726162752509,-5.835573116642236
1783339095595559200,11.83055908203125,0.8539549166500567,-6.028223932698369,-5.197913511008024
1783339095605532000,11.840531982421876,1.5318144307255743,-6.038659401994943,-5.324436196640134
1783339095615504600,11.850504638671875,1.7747347138166427,-6.228938228222727,-6.325239963114261
1783339095625478000,11.860477783203125,1.8096908763855695,-6.386169940373301,-7.369145789211988
1783339095635451000,11.870450927734375,2.004723034620285,-6.576524754446744,-8.787751189386844
1783339095645423600,11.880423583984374,2.353535303246975,-6.663318656280636,-9.891645327979326
1783339095655396600,11.890396728515626,2.4236679931372405,-6.639575961643457,-10.693596501147747
1783339095665369900,11.900369873046875,2.3727514603704214,-6.433212262055277,-11.161401059901713
1783339095675342800,11.9103427734375,2.247596555960178,-5.991564473342895,-11.031645383697748
1783339095685315800,11.92031591796875,1.9482476986825465,-5.314972202724218,-10.496444282019137
1783339095695287800,11.930287841796876,1.2216209388285875,-4.589466263593733,-9.811586871880293
1783339095705260800,11.9402607421875,0.31412034648451953,-3.901021058095991,-9.096109282550215
1783339095715233800,11.95023388671875,-0.4983499191433191,-3.317495485970378,-8.625475637850165
1783339095725206800,11.960206787109374,-1.026626189994812,-2.7410519810602065,-8.333701015219091
1783339095735179800,11.9701796875,-1.2652689418971539,-2.199054935631156,-8.21794171566367
1783339095745152800,11.98015283203125,-1.3119716563612223,-1.6233692633509635,-8.322375903606414
1783339095755125800,11.990125732421875,-1.2640332626223563,-0.9053215312719345,-8.557202312090993
1783339095765098800,12.0000986328125,-1.1482359691441058,0.187252171882987,-8.56429431617856
1783339095775071700,12.01007177734375,-0.39670218358132986,2.0477923610180615,-7.857352500003576
1783339095785044700,12.020044677734376,1.1061714358747006,4.630768872579932,-6.25901597110033
1783339095795017700,12.030017822265625,2.7504069616436957,7.787330869272351,-4.11683267724812
1783339095804990700,12.03999072265625,4.87705629401654,9.783666599297524,-0.04560205974578857
1783339095814963700,12.049963623046875,7.2965481705129145,9.342800900873542,6.2417281516909595
1783339095824935700,12.059935791015626,9.68778981181979,7.681475708615779,10.707889230394363
1783339095834908700,12.06990869140625,8.203902668917179,4.647947386395931,13.578932157719134
1783339095844881700,12.079881591796875,0.5418935850545764,1.031558970221877,13.525591028153896
1783339095854855000,12.08985498046875,-4.309989981521666,1.0322370156139136,15.16188290144205
1783339095864828000,12.099827880859374,-4.725306812669337,3.3229145884096623,17.01506162189841
1783339095874800600,12.109800537109376,-1.9844062227785586,3.5709880164802072,14.675160876250267
1783339095884773600,12.119773681640625,1.005831239247322,3.168227300044894,12.171696877342463
1783339095894747000,12.129746826171875,3.678066289190948,4.423709007421135,12.843955502671003
1783339095904720000,12.139719970703124,3.13641820333004,7.398802091807126,13.599132065182923
1783339095914692900,12.14969287109375,-0.5151685136057436,9.586309212985634,10.994050104796885
1783339095924665600,12.15966552734375,-2.0305954347625375,9.887243878149986,8.18853325034976
1783339095934638800,12.169638916015625,-2.093065627200901,10.37452470626831,7.723785741078853
1783339095944610800,12.17961083984375,-1.6223578943513333,10.734379762434958,8.60224615343213
1783339095954583600,12.18958349609375,-0.47030996570363637,10.358625710868834,8.99479468793273
1783339095964556800,12.199556884765625,0.5636426216565072,9.152786863061785,8.115066447600721
1783339095974529800,12.20952978515625,1.0523006564121693,7.4829597999185316,6.515277966323494
1783339095984502800,12.219502685546875,1.2596505174934862,5.59641656999886,4.462159441846609
1783339095994475800,12.229475830078124,1.0738439413089305,3.682091014662385,2.3744056573182344
1783339096004448800,12.23944873046875,0.8811597344398499,1.9245447515338658,0.5927496198058128
1783339096014421800,12.249421875,1.140773962700367,0.17758593339323997,-1.4096803354412317
1783339096024394800,12.259394775390625,1.5999229213118553,-1.4743372242689132,-3.187418322727084
1783339096034367700,12.26936767578125,1.8720833274126052,-3.0791759746730327,-4.514055633300543
1783339096044340700,12.2793408203125,2.1304794120550152,-4.526296106192469,-5.483152009868622
1783339096054313700,12.289313720703126,2.3210814788877965,-5.972190495309233,-6.130751994758844
1783339096064285700,12.29928564453125,2.1167992617487905,-7.140554475724697,-6.670493662476539
1783339096074258700,12.3092587890625,1.6873785019248724,-7.790307254734635,-6.866397342848777
1783339096084232000,12.31923193359375,1.5904478214800357,-7.986361157232523,-6.99004125817418
1783339096094204700,12.32920458984375,1.534519598031044,-7.874103143796324,-7.163044539952278
1783339096104177700,12.339177734375,1.267549161788821,-7.698749499499797,-7.5196765424191945
1783339096114150700,12.349150634765625,1.0051053361255675,-7.456296249398589,-8.154273837873339
1783339096124124000,12.3591240234375,1.1302695928860456,-7.185342881000041,-8.808957059022784
1783339096134097000,12.369096923828126,1.6677578556537627,-6.938453694278001,-9.49097953799665
1783339096144069600,12.379069580078125,2.2777058630198237,-6.688673462289572,-10.074742133748531
1783339096154042600,12.389042724609375,2.613981306156516,-6.396047775787115,-10.518829132306575
1783339096164015900,12.399015869140625,2.549800802668929,-5.959649578166007,-10.654337672948836
1783339096173988900,12.40898876953125,2.4340637149453164,-5.252862075769901,-10.22853335005641
1783339096183960600,12.418960693359375,2.2312246823519466,-4.4475294434696435,-9.441986082246899
1783339096193933800,12.428933837890625,1.7668090353839099,-3.7377085647270083,-8.843694025883078
1783339096203906800,12.43890673828125,1.2435182978600263,-3.035934506578743,-8.375706511777638
1783339096213879800,12.4488798828125,0.7507849034242332,-2.2915040867477656,-8.055809371989964
1783339096223852800,12.458852783203126,0.3754506847053766,-1.57935213470906,-7.897720166227221
1783339096233825800,12.46882568359375,0.4005126452475786,-0.7461801861077547,-7.626929294914007
1783339096243798800,12.478798828125,0.7709136453479528,0.18263006504029033,-7.537225058591365
1783339096253771800,12.488771728515625,1.058275127711892,1.3366513395875692,-7.544814490807056
1783339096263744800,12.498744873046874,1.3777239392101763,3.256648803080618,-7.677003531637787
1783339096273717800,12.5087177734375,1.9563474185079335,6.428859327542781,-7.227392801222205
1783339096283690800,12.518690673828125,1.9889958886563777,9.19082170242369,-7.304715694877505
1783339096293663700,12.528663818359375,1.1343372076511382,10.246704966562985,-6.156897074362635
1783339096303635700,12.5386357421875,1.306345340912044,10.040814145183562,-0.3220820826113224
1783339096313608700,12.548608642578126,5.9447641437232495,9.555055996587871,7.7174623832762235
1783339096323581700,12.558581787109375,16.783927638190985,9.897184257405996,16.480220585703847
1783339096333554700,12.5685546875,13.977108468973636,3.4410920550227164,19.40947254089117
1783339096343527700,12.578527587890624,1.1379890081569553,-2.706338687336445,10.597342112529278
1783339096353501000,12.5885009765625,-4.211415041001141,-4.30275623087585,7.0190662771284575
1783339096363473700,12.5984736328125,-5.960920328754186,-1.6907605455785988,10.55223923447728
1783339096373446700,12.60844677734375,-5.337632947343588,0.6555763705968857,12.039448799800873
1783339096383419600,12.618419677734375,-1.8538669949814677,3.0678198834002015,12.090009943258762
1783339096393393000,12.628392822265624,2.967899373489618,7.538190104231238,12.053042440867424
1783339096403366000,12.638365966796876,1.9229051676332949,10.819631111001968,11.153842022824287
1783339096413338600,12.648338623046875,-1.4168015656232833,10.546377648967503,9.726737674373387
1783339096423310800,12.658310791015625,-2.7676398359954355,10.039408954560756,10.749680207419395
1783339096433283800,12.668283935546874,-1.9316965229846537,10.639156470429898,12.565040361613034
1783339096443256800,12.6782568359375,-0.13742226530909538,10.558852515137195,12.640648268043995
1783339096453229600,12.6882294921875,0.8314533081151545,8.991054332360624,10.467713862097263
1783339096463202800,12.698202880859375,0.4942553433060646,6.968600410738587,7.7607842231303446
1783339096473175800,12.70817578125,-0.44342634269222614,5.5072623687744136,6.00448006901741
1783339096483148800,12.718148681640624,-1.2673719055257737,4.346826258748769,4.704182483837008
1783339096493121800,12.728121826171876,-1.6088180292986332,3.096892833149433,3.019565847840905
1783339096503094800,12.7380947265625,-1.432289057612419,1.7786825746595858,1.092028344231844
1783339096513067800,12.74806787109375,-0.8135141121249645,0.6377414386987685,-0.4854962827891111
1783339096523040800,12.758040771484374,-0.43522798479795455,-0.6032558162510395,-2.1771078922390936
