time,seconds_elapsed,z,y,x
1783339083826264000,0.06126416015625,-0.875946044921875,-0.457611083984375,-0.0600128173828125
1783339083836237300,0.0712373046875,-0.8831939697265625,-0.4575958251953125,-0.0499420166015625
1783339083846210300,0.081210205078125,-0.88226318359375,-0.4519805908203125,-0.04766845703125
1783339083856182300,0.091182373046875,-0.87890625,-0.4455718994140625,-0.0548095703125
1783339083866155300,0.1011552734375,-0.877044677734375,-0.436614990234375,-0.067840576171875
1783339083876128300,0.111128173828125,-0.8745880126953125,-0.4267730712890625,-0.085174560546875
1783339083886101200,0.121101318359375,-0.8702850341796875,-0.4218902587890625,-0.092132568359375
1783339083896074200,0.13107421875,-0.8625640869140625,-0.4190521240234375,-0.0838775634765625
1783339083906047200,0.141047119140625,-0.8651580810546875,-0.4224700927734375,-0.0771942138671875
1783339083916019200,0.151019287109375,-0.864990234375,-0.4345550537109375,-0.0720062255859375
1783339083925992200,0.1609921875,-0.8643341064453125,-0.4540557861328125,-0.0578155517578125
1783339083935965200,0.170965087890625,-0.8640289306640625,-0.4638214111328125,-0.0478973388671875
1783339083945938400,0.1809384765625,-0.8679046630859375,-0.469451904296875,-0.0549468994140625
1783339083955911200,0.1909111328125,-0.877166748046875,-0.471160888671875,-0.0744781494140625
1783339083965884200,0.20088427734375,-0.8989105224609375,-0.4539794921875,-0.1015777587890625
1783339083975856400,0.2108564453125,-0.923919677734375,-0.412994384765625,-0.1363525390625
1783339083985829400,0.220829345703125,-0.9429168701171875,-0.3739166259765625,-0.17236328125
1783339083995802000,0.230802001953125,-0.962066650390625,-0.3983001708984375,-0.2385101318359375
1783339084005775000,0.240775146484375,-0.92181396484375,-0.3534698486328125,-0.2419891357421875
1783339084015748400,0.250748291015625,-0.8854217529296875,-0.27484130859375,-0.190673828125
1783339084025721300,0.260721435546875,-0.8789825439453125,-0.2317962646484375,-0.1335296630859375
1783339084035693000,0.270693115234375,-0.9197540283203125,-0.228851318359375,-0.1104736328125
1783339084045666300,0.280666259765625,-0.9778900146484375,-0.220794677734375,-0.1052703857421875
1783339084055639300,0.290639404296875,-1.07000732421875,-0.1998443603515625,-0.0701446533203125
1783339084065612300,0.3006123046875,-1.127471923828125,-0.1698455810546875,-0.0121002197265625
1783339084075585300,0.310585205078125,-1.1519622802734375,-0.1595306396484375,0.056488037109375
1783339084085558300,0.320558349609375,-1.1475830078125,-0.1927337646484375,0.1106414794921875
1783339084095531300,0.33053125,-1.1244964599609375,-0.221923828125,0.1279754638671875
1783339084105503200,0.340503173828125,-1.0695037841796875,-0.2656707763671875,0.12799072265625
1783339084115476500,0.3504765625,-1.0738067626953125,-0.3174285888671875,0.099365234375
1783339084125449200,0.36044921875,-1.0767364501953125,-0.333221435546875,0.0952911376953125
1783339084135422200,0.370422119140625,-1.020660400390625,-0.3129730224609375,0.0791778564453125
1783339084145395200,0.380395263671875,-0.9310455322265625,-0.2779388427734375,0.062957763671875
1783339084155368400,0.390368408203125,-0.82086181640625,-0.254180908203125,0.0707550048828125
1783339084165340200,0.400340087890625,-0.691497802734375,-0.2747955322265625,0.1334686279296875
1783339084175313200,0.410313232421875,-0.64959716796875,-0.31402587890625,0.212646484375
1783339084185286400,0.420286376953125,-0.700103759765625,-0.3431854248046875,0.255706787109375
1783339084195259400,0.43025927734375,-0.82275390625,-0.3373260498046875,0.2188568115234375
1783339084205232000,0.440232177734375,-0.9478607177734375,-0.345977783203125,0.13824462890625
1783339084215205000,0.450205078125,-1.121063232421875,-0.49749755859375,0.0910797119140625
1783339084225178400,0.460178466796875,-1.2507476806640625,-0.549896240234375,0.1227569580078125
1783339084235150300,0.470150390625,-1.2921295166015625,-0.393096923828125,0.0928955078125
1783339084245123000,0.480123046875,-1.0274200439453125,-0.101348876953125,0.0173187255859375
1783339084255096300,0.490096435546875,-0.959197998046875,-0.0652923583984375,-0.0320587158203125
1783339084265069300,0.5000693359375,-1.067291259765625,-0.03839111328125,0.00787353515625
1783339084275042300,0.510042236328125,-1.141845703125,-0.0022430419921875,0.066192626953125
1783339084285015300,0.520015380859375,-1.1291961669921875,0.0040283203125,0.1104583740234375
1783339084294987300,0.5299873046875,-1.0609130859375,0.0058441162109375,0.133087158203125
1783339084304960300,0.539960205078125,-0.92462158203125,-0.007659912109375,0.1326446533203125
1783339084314933200,0.549933349609375,-0.7762451171875,-0.0333251953125,0.155975341796875
1783339084324906200,0.55990625,-0.6917877197265625,-0.08953857421875,0.163177490234375
1783339084334879200,0.569879150390625,-0.6190948486328125,-0.134857177734375,0.13397216796875
1783339084344852200,0.579852294921875,-0.5831756591796875,-0.1626129150390625,0.0965576171875
1783339084354825200,0.5898251953125,-0.504302978515625,-0.1783905029296875,0.0579071044921875
1783339084364797400,0.59979736328125,-0.4353485107421875,-0.1945037841796875,0.0019683837890625
1783339084374770200,0.609770263671875,-0.4162750244140625,-0.1716461181640625,-0.0668792724609375
1783339084384743200,0.6197431640625,-0.4243927001953125,-0.103424072265625,-0.133392333984375
1783339084394716200,0.629716064453125,-0.445404052734375,-0.000640869140625,-0.18621826171875
1783339084404689400,0.639689453125,-0.47503662109375,0.090057373046875,-0.2276458740234375
1783339084414662400,0.649662353515625,-0.5631256103515625,0.09136962890625,-0.30157470703125
1783339084424634000,0.659634033203125,-0.6107635498046875,0.1156463623046875,-0.323638916015625
1783339084434607400,0.669607421875,-0.5818023681640625,0.1603240966796875,-0.27325439453125
1783339084444580400,0.679580322265625,-0.4480438232421875,0.14141845703125,-0.143524169921875
1783339084454553300,0.68955322265625,-0.3043975830078125,0.1251068115234375,-0.067901611328125
1783339084464526000,0.699526123046875,-0.1702880859375,0.196380615234375,-0.1404571533203125
1783339084474499300,0.709499267578125,-0.114044189453125,0.26068115234375,-0.2279510498046875
1783339084484472300,0.719472412109375,-0.1484222412109375,0.2727813720703125,-0.281494140625
1783339084494444300,0.7294443359375,-0.2643585205078125,0.25244140625,-0.2956390380859375
1783339084504417300,0.739417236328125,-0.3810272216796875,0.279022216796875,-0.3178863525390625
1783339084514390300,0.749390380859375,-0.45098876953125,0.3134002685546875,-0.372772216796875
1783339084524363300,0.75936328125,-0.5050201416015625,0.3516082763671875,-0.4518280029296875
1783339084534336300,0.769336181640625,-0.6162872314453125,0.3868560791015625,-0.5035858154296875
1783339084544309500,0.7793095703125,-0.7141265869140625,0.335296630859375,-0.5962066650390625
1783339084554282200,0.7892822265625,-0.785247802734375,0.320159912109375,-0.6984405517578125
1783339084564254200,0.799254150390625,-0.801239013671875,0.4190521240234375,-0.8020477294921875
1783339084574227500,0.8092275390625,-0.867767333984375,0.463897705078125,-0.8844451904296875
1783339084584200200,0.8192001953125,-0.9838714599609375,0.5524444580078125,-0.9677734375
1783339084594173200,0.829173095703125,-1.0553741455078125,0.6266632080078125,-1.0653839111328125
1783339084604146200,0.839146240234375,-1.0157928466796875,0.6067657470703125,-1.231536865234375
1783339084614119200,0.849119140625,-0.922576904296875,0.5749664306640625,-1.4109039306640625
1783339084624091100,0.859091064453125,-0.852294921875,0.51654052734375,-1.5707550048828125
1783339084634064100,0.869064208984375,-0.7947998046875,0.45758056640625,-1.7435455322265625
1783339084644037000,0.879037109375,-0.76129150390625,0.4577484130859375,-1.827301025390625
1783339084654010000,0.889010009765625,-0.7440032958984375,0.48712158203125,-1.80120849609375
1783339084663983000,0.898983154296875,-0.6801300048828125,0.50994873046875,-1.7400360107421875
1783339084673956000,0.9089560546875,-0.541473388671875,0.548065185546875,-1.7187652587890625
1783339084683929000,0.91892919921875,-0.36553955078125,0.5503997802734375,-1.7032623291015625
1783339084693901000,0.928901123046875,-0.1563873291015625,0.4876251220703125,-1.68756103515625
1783339084703874000,0.9388740234375,0.0401611328125,0.480194091796875,-1.6125640869140625
1783339084713847000,0.948846923828125,0.17584228515625,0.50433349609375,-1.4840087890625
1783339084723820300,0.9588203125,0.276031494140625,0.506988525390625,-1.352752685546875
1783339084733793000,0.96879296875,0.3701629638671875,0.519439697265625,-1.2524261474609375
1783339084743766000,0.97876611328125,0.4531402587890625,0.5002899169921875,-1.1784515380859375
1783339084753739000,0.988739013671875,0.5036468505859375,0.4486083984375,-1.2067108154296875
1783339084763711200,0.998711181640625,0.4890289306640625,0.3681793212890625,-1.28741455078125
1783339084773684000,1.00868408203125,0.46148681640625,0.274566650390625,-1.3722076416015625
1783339084783657000,1.018656982421875,0.4532623291015625,0.2301788330078125,-1.420928955078125
1783339084793630200,1.028630126953125,0.4257965087890625,0.2191009521484375,-1.35113525390625
1783339084803603200,1.038603271484375,0.392578125,0.2672576904296875,-1.2269287109375
1783339084813576200,1.048576171875,0.352294921875,0.3448333740234375,-1.052764892578125
1783339084823549000,1.058548828125,0.267578125,0.445220947265625,-0.8191986083984375
1783339084833521200,1.068521240234375,0.07916259765625,0.4662933349609375,-0.5829010009765625
1783339084843494100,1.078494140625,-0.047271728515625,0.466278076171875,-0.571136474609375
1783339084853467100,1.088467041015625,-0.1651458740234375,0.445953369140625,-0.728179931640625
1783339084863440100,1.098440185546875,-0.1907806396484375,0.358673095703125,-1.097076416015625
1783339084873413000,1.1084130859375,-0.1195220947265625,0.2319183349609375,-1.4433746337890625
1783339084883386000,1.11838623046875,0.332000732421875,0.1328125,-1.513580322265625
1783339084893359000,1.128359130859375,0.833343505859375,0.085418701171875,-1.3957672119140625
1783339084903331000,1.1383310546875,0.910247802734375,0.118255615234375,-1.3654022216796875
1783339084913304000,1.148303955078125,0.732421875,0.2263336181640625,-1.0871429443359375
1783339084923277000,1.158277099609375,0.256317138671875,0.4519500732421875,-0.3907928466796875
1783339084933250300,1.168250244140625,-0.07208251953125,0.5715179443359375,-0.354217529296875
1783339084943223300,1.178223388671875,-0.3527069091796875,0.72979736328125,0.0424041748046875
1783339084953196000,1.188196044921875,-0.5387420654296875,1.0244598388671875,0.61676025390625
1783339084963169000,1.1981689453125,-0.3504486083984375,1.134033203125,0.524322509765625
1783339084973142300,1.208142333984375,0.0593414306640625,1.063751220703125,0.036102294921875
1783339084983114200,1.2181142578125,0.3867950439453125,0.978424072265625,-0.5614776611328125
1783339084993087000,1.2280869140625,0.486480712890625,0.783905029296875,-1.1846923828125
1783339085003060200,1.238060302734375,0.3459930419921875,0.64837646484375,-1.5718536376953125
1783339085013033200,1.248033203125,0.1066131591796875,0.630157470703125,-1.729522705078125
1783339085023006200,1.258006103515625,0.097503662109375,0.6323394775390625,-1.951629638671875
1783339085032979200,1.267979248046875,-0.276885986328125,0.7956695556640625,-2.1257476806640625
1783339085042952000,1.277951904296875,-0.606201171875,1.1160430908203125,-1.6138763427734375
1783339085052924200,1.287924072265625,-0.4327392578125,1.16595458984375,-1.2853240966796875
1783339085062897200,1.297897216796875,-0.0679473876953125,1.148040771484375,-1.228302001953125
1783339085072870100,1.3078701171875,0.3367156982421875,1.072357177734375,-1.2877349853515625
1783339085082843100,1.317843017578125,0.527618408203125,0.9879608154296875,-1.266815185546875
1783339085092816100,1.327816162109375,0.515472412109375,0.880157470703125,-1.2337188720703125
1783339085102789000,1.3377890625,0.411285400390625,0.743743896484375,-1.194549560546875
1783339085112762000,1.34776220703125,0.2775421142578125,0.6033935546875,-1.1053314208984375
1783339085122735000,1.357735107421875,0.2446136474609375,0.5061187744140625,-0.9682464599609375
1783339085132707000,1.36770703125,0.2436676025390625,0.498443603515625,-0.7784576416015625
1783339085142680000,1.37768017578125,0.227325439453125,0.5204925537109375,-0.624603271484375
1783339085152653300,1.3876533203125,0.082427978515625,0.46661376953125,-0.4752044677734375
1783339085162626000,1.3976259765625,-0.0997161865234375,0.3623504638671875,-0.3785858154296875
1783339085172599000,1.40759912109375,-0.0889739990234375,0.17291259765625,-0.4112701416015625
1783339085182572000,1.417572021484375,0.02825927734375,-0.016510009765625,-0.542083740234375
1783339085192545300,1.427545166015625,0.0597686767578125,-0.1924591064453125,-0.7307586669921875
1783339085202518300,1.437518310546875,0.0157928466796875,-0.3401336669921875,-0.7882537841796875
1783339085212490000,1.447489990234375,-0.026123046875,-0.4026641845703125,-0.8271484375
1783339085222463200,1.457463134765625,-0.1453857421875,-0.3146820068359375,-0.9159088134765625
1783339085232436200,1.467436279296875,-0.3494415283203125,-0.1837615966796875,-0.819549560546875
1783339085242409200,1.4774091796875,-0.3944854736328125,-0.248046875,-0.7414093017578125
1783339085252382000,1.4873818359375,-0.32366943359375,-0.18707275390625,-0.8437042236328125
1783339085262355200,1.497355224609375,-0.2609100341796875,0.0836334228515625,-0.7724609375
1783339085272328200,1.507328125,-0.086639404296875,0.3108673095703125,-0.5577392578125
1783339085282301200,1.51730126953125,0.0948486328125,0.518951416015625,-0.1878204345703125
1783339085292273200,1.527273193359375,0.1956329345703125,0.664215087890625,0.265045166015625
1783339085302246100,1.53724609375,0.14361572265625,0.656982421875,0.4859619140625
1783339085312219100,1.54721923828125,-0.1868743896484375,0.81982421875,0.2944183349609375
1783339085322192100,1.557192138671875,-0.47235107421875,0.871551513671875,0.141265869140625
1783339085332165000,1.5671650390625,-0.20135498046875,0.6898345947265625,-0.0658416748046875
1783339085342138000,1.57713818359375,0.365020751953125,0.603790283203125,-0.5380096435546875
1783339085352111000,1.587111083984375,0.799072265625,0.486480712890625,-0.934295654296875
1783339085362084000,1.597083984375,1.0331573486328125,0.4154510498046875,-1.1417694091796875
1783339085372057000,1.60705712890625,0.805511474609375,0.4564208984375,-1.1932373046875
1783339085382029000,1.617029052734375,0.5550689697265625,0.521148681640625,-1.265625
1783339085392002000,1.627001953125,0.43194580078125,0.5264129638671875,-1.310272216796875
1783339085401975000,1.63697509765625,0.5156097412109375,0.66729736328125,-1.2324371337890625
1783339085411948300,1.6469482421875,0.759521484375,0.7691650390625,-1.14129638671875
1783339085421921300,1.65692138671875,1.0495452880859375,1.0035552978515625,-1.0735626220703125
1783339085431894000,1.66689404296875,0.948577880859375,1.3250274658203125,-1.22052001953125
1783339085441867000,1.676866943359375,0.7437744140625,1.3042144775390625,-1.3498687744140625
1783339085451840300,1.68684033203125,0.3626556396484375,1.1119232177734375,-1.20458984375
1783339085461812000,1.69681201171875,0.2744903564453125,0.865447998046875,-0.9662933349609375
1783339085471785000,1.706784912109375,0.351959228515625,0.647674560546875,-0.6986236572265625
1783339085481758200,1.71675830078125,0.470855712890625,0.5324859619140625,-0.567291259765625
1783339085491731200,1.726731201171875,0.61248779296875,0.48760986328125,-0.610107421875
1783339085501704200,1.7367041015625,0.6682281494140625,0.5104217529296875,-0.684478759765625
1783339085511677000,1.746677001953125,0.57257080078125,0.5993499755859375,-0.7292938232421875
1783339085521650200,1.756650146484375,0.4501953125,0.6842193603515625,-0.7196807861328125
1783339085531623200,1.766623046875,0.3172149658203125,0.86669921875,-0.620025634765625
1783339085541595100,1.77659521484375,0.2935638427734375,1.0264129638671875,-0.6285247802734375
1783339085551568100,1.786568115234375,0.2945709228515625,1.0700225830078125,-0.6324462890625
1783339085561541000,1.796541015625,0.1466064453125,1.0411834716796875,-0.5144500732421875
1783339085571514000,1.80651416015625,-0.01312255859375,0.9500885009765625,-0.419097900390625
1783339085581487000,1.816487060546875,-0.111053466796875,1.0036773681640625,-0.46319580078125
1783339085591460400,1.82646044921875,-0.1181793212890625,1.1075592041015625,-0.4639892578125
1783339085601433000,1.83643310546875,-0.1104278564453125,1.115142822265625,-0.4778289794921875
1783339085611404800,1.84640478515625,-0.118438720703125,0.991851806640625,-0.494476318359375
1783339085621377800,1.856377685546875,-0.177978515625,0.8353424072265625,-0.4843597412109375
1783339085631350800,1.866350830078125,-0.1475067138671875,0.7479400634765625,-0.4170074462890625
1783339085641323800,1.87632373046875,-0.07440185546875,0.72021484375,-0.351531982421875
1783339085651296800,1.886296875,-0.0695648193359375,0.620330810546875,-0.3827667236328125
1783339085661270000,1.89627001953125,-0.1151275634765625,0.567596435546875,-0.3713531494140625
1783339085671242800,1.90624267578125,-0.0972747802734375,0.5306854248046875,-0.3077392578125
1783339085681215700,1.9162158203125,-0.0880126953125,0.4862060546875,-0.1741943359375
1783339085691188700,1.926188720703125,0.0057525634765625,0.413360595703125,-0.0520782470703125
1783339085701162000,1.936161865234375,0.0905303955078125,0.3867950439453125,0.0646209716796875
1783339085711133700,1.9461337890625,0.0161590576171875,0.3648529052734375,0.1517486572265625
1783339085721106700,1.956106689453125,-0.0387725830078125,0.403839111328125,0.244659423828125
1783339085731080000,1.966079833984375,-0.09033203125,0.6130828857421875,0.4474029541015625
1783339085741053000,1.976052978515625,-0.1600494384765625,1.2544708251953125,0.9462127685546875
1783339085751026000,1.98602587890625,-0.10455322265625,1.885833740234375,1.3448028564453125
1783339085760998700,1.99599853515625,-0.0258636474609375,1.814849853515625,1.2032012939453125
1783339085770971600,2.0059716796875,-0.0388641357421875,1.15313720703125,0.618621826171875
1783339085780945000,2.01594482421875,-0.0588531494140625,0.65185546875,0.3143768310546875
1783339085790918000,2.02591796875,-0.030670166015625,0.420166015625,0.2103118896484375
1783339085800890600,2.035890625,-0.0468902587890625,0.273712158203125,0.125946044921875
1783339085810862800,2.04586279296875,-0.0438690185546875,0.2503662109375,0.0394287109375
1783339085820835800,2.0558359375,-0.0180206298828125,0.3817291259765625,0.0502166748046875
1783339085830808800,2.065808837890625,-0.02020263671875,0.5887603759765625,0.0905914306640625
1783339085840781600,2.075781494140625,-0.05712890625,0.8474578857421875,0.147064208984375
1783339085850754800,2.0857548828125,-0.1186981201171875,1.076141357421875,0.1902008056640625
1783339085860727800,2.095727783203125,-0.169769287109375,1.2453460693359375,0.1964874267578125
1783339085870700800,2.10570068359375,-0.187713623046875,1.40924072265625,0.2221832275390625
1783339085880673800,2.115673828125,-0.1594390869140625,1.5752716064453125,0.314239501953125
1783339085890646800,2.125646728515625,0.006561279296875,1.73626708984375,0.4615478515625
1783339085900619800,2.135619873046875,0.26031494140625,1.9123992919921875,0.677001953125
1783339085910591700,2.145591796875,0.4486541748046875,2.0061492919921875,0.8797760009765625
1783339085920565000,2.15556494140625,0.538116455078125,1.946624755859375,0.93426513671875
1783339085930537700,2.165537841796875,0.414337158203125,1.809722900390625,0.9556427001953125
1783339085940510700,2.1755107421875,0.14404296875,1.712921142578125,1.03863525390625
1783339085950483700,2.185483642578125,-0.1069793701171875,1.6590423583984375,1.1197357177734375
1783339085960457000,2.19545703125,-0.316314697265625,1.7179718017578125,1.2198638916015625
1783339085970430000,2.205429931640625,-0.327301025390625,1.579681396484375,1.056396484375
1783339085980402700,2.215402587890625,-0.2070770263671875,1.4414215087890625,0.8159942626953125
1783339085990375700,2.225375732421875,-0.128021240234375,1.4098968505859375,0.719512939453125
1783339086000349000,2.235348876953125,-0.09649658203125,1.3787384033203125,0.7500762939453125
1783339086010322000,2.245322021484375,-0.1461944580078125,1.295501708984375,0.7783660888671875
1783339086020293600,2.255293701171875,-0.1648712158203125,1.20184326171875,0.7089385986328125
1783339086030267000,2.265266845703125,-0.1400909423828125,0.9290618896484375,0.461029052734375
1783339086040239900,2.275239990234375,-0.107635498046875,0.6204986572265625,0.2187347412109375
1783339086050212900,2.285212890625,-0.0630340576171875,0.441314697265625,0.0853118896484375
1783339086060185900,2.295185791015625,-0.0160980224609375,0.3505401611328125,-0.003082275390625
1783339086070158800,2.305158935546875,0.039886474609375,0.2663726806640625,-0.07470703125
1783339086080131800,2.3151318359375,0.087127685546875,0.1718902587890625,-0.134765625
1783339086090104800,2.325104736328125,0.10748291015625,0.0952301025390625,-0.1622161865234375
1783339086100077800,2.335077880859375,0.097900390625,0.079620361328125,-0.1607513427734375
1783339086110050800,2.34505078125,0.0604705810546875,0.1348876953125,-0.0948944091796875
1783339086120023800,2.35502392578125,-0.0019073486328125,0.181060791015625,-0.004425048828125
1783339086129995800,2.364995849609375,-0.0793304443359375,0.188751220703125,0.050811767578125
1783339086139968800,2.37496875,-0.1535797119140625,0.2086181640625,0.0644378662109375
1783339086149941800,2.384941650390625,-0.2032318115234375,0.2327117919921875,0.0310516357421875
1783339086159914800,2.394914794921875,-0.2026824951171875,0.2591400146484375,-0.0235595703125
1783339086169887700,2.4048876953125,-0.14251708984375,0.297454833984375,-0.063812255859375
1783339086179860700,2.41486083984375,-0.0454864501953125,0.3444366455078125,-0.061798095703125
1783339086189834000,2.424833984375,0.0464019775390625,0.3653717041015625,-0.0396881103515625
1783339086199806700,2.434806640625,0.0991668701171875,0.337982177734375,-0.0330810546875
1783339086209779700,2.44477978515625,0.14794921875,0.295013427734375,-0.0478973388671875
1783339086219752700,2.454752685546875,0.2313079833984375,0.3033599853515625,-0.05023193359375
1783339086229726000,2.464725830078125,0.3240203857421875,0.388336181640625,-0.0273895263671875
1783339086239697700,2.47469775390625,0.4146728515625,0.548095703125,0.01324462890625
1783339086249670700,2.484670654296875,0.4753570556640625,0.7893829345703125,0.0810546875
1783339086259644000,2.494643798828125,0.53857421875,1.0610504150390625,0.1729888916015625
1783339086269617000,2.504616943359375,0.5841522216796875,1.2942962646484375,0.3205718994140625
1783339086279590000,2.51458984375,0.46636962890625,1.4304656982421875,0.5731201171875
1783339086289562600,2.524562744140625,0.2871856689453125,1.5422515869140625,0.8524017333984375
1783339086299536000,2.534535888671875,0.1245574951171875,1.692352294921875,1.097503662109375
1783339086309508900,2.5445087890625,-0.060546875,1.759246826171875,1.1711883544921875
1783339086319481900,2.55448193359375,-0.276092529296875,1.77520751953125,1.033111572265625
1783339086329454800,2.564454833984375,-0.4132843017578125,1.8595123291015625,0.8209075927734375
1783339086339427600,2.574427490234375,-0.441650390625,2.01239013671875,0.7293548583984375
1783339086349400800,2.58440087890625,-0.3971405029296875,2.1009063720703125,0.7349090576171875
1783339086359372800,2.594372802734375,-0.3097381591796875,2.1802520751953125,0.8107757568359375
1783339086369345800,2.604345703125,-0.1734466552734375,2.2440948486328125,0.947967529296875
1783339086379318800,2.61431884765625,0.03240966796875,2.322265625,1.1223907470703125
1783339086389291800,2.624291748046875,0.238311767578125,2.4138336181640625,1.236480712890625
1783339086399264800,2.6342646484375,0.420013427734375,2.39892578125,1.1889190673828125
1783339086409237800,2.64423779296875,0.49578857421875,2.315643310546875,1.0569610595703125
1783339086419211000,2.6542109375,0.4879608154296875,2.23486328125,0.909698486328125
1783339086429183700,2.664183837890625,0.482940673828125,2.0499114990234375,0.6862030029296875
1783339086439156700,2.67415673828125,0.459228515625,1.7617034912109375,0.4507598876953125
1783339086449129700,2.684129638671875,0.4249267578125,1.468505859375,0.294921875
1783339086459103000,2.69410302734375,0.3466796875,1.2137603759765625,0.1969451904296875
1783339086469076000,2.704075927734375,0.2402191162109375,0.95306396484375,0.1399993896484375
1783339086479047700,2.714047607421875,0.1378936767578125,0.6738433837890625,0.13897705078125
1783339086489021000,2.72402099609375,0.04364013671875,0.43756103515625,0.1462860107421875
1783339086498994000,2.733993896484375,-0.034698486328125,0.2762908935546875,0.1656951904296875
1783339086508966700,2.743966552734375,-0.086517333984375,0.14813232421875,0.17181396484375
1783339086518939600,2.753939697265625,-0.1357269287109375,0.02154541015625,0.1129608154296875
1783339086528913000,2.763912841796875,-0.2028350830078125,-0.1050872802734375,0.0038604736328125
1783339086538886000,2.773885986328125,-0.28265380859375,-0.1818389892578125,-0.1051483154296875
1783339086548859000,2.78385888671875,-0.336944580078125,-0.2048797607421875,-0.1533203125
1783339086558831600,2.79383154296875,-0.3593902587890625,-0.2468109130859375,-0.1486968994140625
1783339086568804900,2.803804931640625,-0.3267364501953125,-0.3104400634765625,-0.12335205078125
1783339086578777900,2.81377783203125,-0.211700439453125,-0.366668701171875,-0.076416015625
1783339086588750800,2.823750732421875,-0.068389892578125,-0.3634185791015625,-0.00567626953125
1783339086598722800,2.833722900390625,0.05145263671875,-0.2919158935546875,0.0500030517578125
1783339086608695800,2.84369580078125,0.1439666748046875,-0.203521728515625,0.066925048828125
1783339086618668800,2.853668701171875,0.208648681640625,-0.110076904296875,0.0302734375
1783339086628641500,2.8636416015625,0.2502288818359375,-0.0029296875,-0.0544281005859375
1783339086638614500,2.873614501953125,0.2729034423828125,0.10205078125,-0.1667633056640625
1783339086648587800,2.883587890625,0.278411865234375,0.2025909423828125,-0.244049072265625
1783339086658560800,2.893560791015625,0.270477294921875,0.270599365234375,-0.261444091796875
1783339086668533500,2.903533447265625,0.246337890625,0.291534423828125,-0.2553863525390625
1783339086678506500,2.913506591796875,0.1716156005859375,0.266754150390625,-0.2452545166015625
1783339086688479700,2.923479736328125,0.0640411376953125,0.2331390380859375,-0.2431182861328125
1783339086698452700,2.93345263671875,0.0342559814453125,0.2574310302734375,-0.271728515625
1783339086708425700,2.94342578125,0.0219268798828125,0.3409881591796875,-0.265045166015625
1783339086718398500,2.9533984375,0.01092529296875,0.463897705078125,-0.22772216796875
1783339086728370700,2.96337060546875,0.027984619140625,0.630828857421875,-0.176788330078125
1783339086738343700,2.97334375,0.0885162353515625,0.8757476806640625,-0.1181182861328125
1783339086748316700,2.983316650390625,0.2494659423828125,1.2625885009765625,0.0328521728515625
1783339086758289700,2.99328955078125,0.4349822998046875,1.820068359375,0.291229248046875
1783339086768262700,3.0032626953125,0.535125732421875,2.3767852783203125,0.5877227783203125
1783339086778235600,3.013235595703125,0.3997344970703125,2.6448822021484375,0.9389801025390625
1783339086788208600,3.023208740234375,0.317291259765625,2.6486968994140625,1.3277587890625
1783339086798182000,3.033181884765625,0.4803619384765625,2.6045989990234375,1.559417724609375
1783339086808154600,3.043154541015625,0.3280029296875,2.4063720703125,1.395477294921875
1783339086818127600,3.053127685546875,-0.0675201416015625,2.2792816162109375,1.2887725830078125
1783339086828100600,3.0631005859375,-0.1602630615234375,2.2303314208984375,1.4008331298828125
1783339086838073900,3.073073974609375,0.004119873046875,2.1961669921875,1.5130615234375
1783339086848046800,3.083046875,0.1190338134765625,2.1081390380859375,1.522064208984375
1783339086858018600,3.0930185546875,0.1683502197265625,2.0946502685546875,1.47747802734375
1783339086867991800,3.10299169921875,0.094970703125,2.0767822265625,1.34454345703125
1783339086877964800,3.11296484375,0.0064849853515625,2.04107666015625,1.1741790771484375
1783339086887937800,3.122937744140625,0.0106201171875,1.8995819091796875,0.9597015380859375
1783339086897910500,3.13291064453125,0.0375213623046875,1.673431396484375,0.7288665771484375
1783339086907883500,3.142883544921875,0.0475006103515625,1.455902099609375,0.5334625244140625
1783339086917856800,3.152856689453125,0.0897979736328125,1.2429962158203125,0.392059326171875
1783339086927829800,3.162829833984375,0.1927337646484375,1.0599365234375,0.2982330322265625
1783339086937802800,3.172802734375,0.3157196044921875,0.86932373046875,0.204376220703125
1783339086947775500,3.182775390625,0.40972900390625,0.677490234375,0.096649169921875
1783339086957748700,3.192748779296875,0.458770751953125,0.5122222900390625,0.0142059326171875
1783339086967721700,3.2027216796875,0.47735595703125,0.35955810546875,-0.01507568359375
1783339086977694700,3.21269482421875,0.4633331298828125,0.2196807861328125,-0.001556396484375
1783339086987666700,3.222666748046875,0.36614990234375,0.1033935546875,0.02056884765625
1783339086997639700,3.2326396484375,0.204986572265625,0.0279693603515625,0.0300750732421875
1783339087007612700,3.24261279296875,0.03497314453125,-0.026458740234375,0.028228759765625
1783339087017585700,3.252585693359375,-0.1176605224609375,-0.130126953125,-0.019287109375
1783339087027558700,3.26255859375,-0.1999053955078125,-0.1768951416015625,-0.03369140625
1783339087037531600,3.27253173828125,-0.1952972412109375,-0.17840576171875,-0.0368499755859375
1783339087047504600,3.282504638671875,-0.1239471435546875,-0.1534576416015625,-0.0475616455078125
1783339087057477600,3.2924775390625,-0.0245361328125,-0.1470947265625,-0.0933837890625
1783339087067451000,3.302450927734375,0.077301025390625,-0.1224212646484375,-0.143585205078125
1783339087077423600,3.312423583984375,0.1639862060546875,-0.0723876953125,-0.1777191162109375
1783339087087396600,3.322396728515625,0.2314910888671875,-0.00482177734375,-0.18756103515625
1783339087097369600,3.33236962890625,0.25811767578125,0.0549774169921875,-0.1838836669921875
1783339087107342800,3.3423427734375,0.247467041015625,0.1112060546875,-0.1713104248046875
1783339087117315800,3.35231591796875,0.2122650146484375,0.1787261962890625,-0.1439666748046875
1783339087127287600,3.36228759765625,0.1556854248046875,0.2663116455078125,-0.11578369140625
1783339087137260800,3.3722607421875,0.053863525390625,0.354156494140625,-0.1030731201171875
1783339087147233800,3.38223388671875,-0.02984619140625,0.435028076171875,-0.1252288818359375
1783339087157206800,3.392206787109375,-0.0451202392578125,0.554046630859375,-0.1655426025390625
1783339087167179500,3.402179443359375,-0.061859130859375,0.6912841796875,-0.2028656005859375
1783339087177152500,3.412152587890625,-0.06158447265625,0.85272216796875,-0.2282867431640625
1783339087187125800,3.422125732421875,-0.0118408203125,1.0135345458984375,-0.1734161376953125
1783339087197098800,3.4320986328125,0.1241607666015625,1.200103759765625,0.0653839111328125
1783339087207071700,3.44207177734375,0.224639892578125,1.4644927978515625,0.39208984375
1783339087217044500,3.45204443359375,0.1543121337890625,1.753448486328125,0.7544097900390625
1783339087227017700,3.462017822265625,0.0480804443359375,2.0851287841796875,1.050262451171875
1783339087236990700,3.47199072265625,0.0206298828125,2.4262237548828125,1.250640869140625
1783339087246963700,3.481963623046875,-0.0561676025390625,2.423492431640625,1.2244110107421875
1783339087256936700,3.491936767578125,-0.1063690185546875,2.2256011962890625,1.1561737060546875
1783339087266908700,3.50190869140625,-0.091278076171875,2.1141510009765625,1.2503509521484375
1783339087276881700,3.511881591796875,-0.01544189453125,2.005767822265625,1.306243896484375
1783339087286854700,3.521854736328125,0.2767486572265625,1.9872589111328125,1.328948974609375
1783339087296828000,3.531827880859375,0.49859619140625,2.1036529541015625,1.356109619140625
1783339087306800600,3.541800537109375,0.5363006591796875,2.2155303955078125,1.373748779296875
1783339087316773600,3.551773681640625,0.4415740966796875,2.19732666015625,1.3168487548828125
1783339087326746600,3.56174658203125,0.245574951171875,2.0412139892578125,1.1414031982421875
1783339087336720000,3.571719970703125,0.0281524658203125,1.842803955078125,0.950042724609375
1783339087346692600,3.581692626953125,-0.09521484375,1.617828369140625,0.8056793212890625
1783339087356665600,3.59166552734375,-0.1524505615234375,1.402679443359375,0.697265625
1783339087366638600,3.601638671875,-0.1630096435546875,1.1879730224609375,0.5988006591796875
1783339087376611600,3.611611572265625,-0.1204986572265625,0.9730682373046875,0.505462646484375
1783339087386584800,3.621584716796875,-0.077728271484375,0.7900238037109375,0.437286376953125
1783339087396557600,3.6315576171875,-0.0345611572265625,0.63702392578125,0.372833251953125
1783339087406530600,3.641530517578125,0.0536346435546875,0.496185302734375,0.3137359619140625
1783339087416502800,3.651502685546875,0.1457977294921875,0.326141357421875,0.26605224609375
1783339087426475800,3.661475830078125,0.2232208251953125,0.1424560546875,0.1718902587890625
1783339087436448500,3.671448486328125,0.2480010986328125,-0.01202392578125,0.042327880859375
1783339087446421500,3.68142138671875,0.23004150390625,-0.10552978515625,-0.067718505859375
1783339087456394800,3.691394775390625,0.1920623779296875,-0.1285400390625,-0.149383544921875
1783339087466367700,3.70136767578125,0.13592529296875,-0.092010498046875,-0.2133026123046875
1783339087476340700,3.7113408203125,0.088836669921875,-0.0186309814453125,-0.260589599609375
1783339087486313500,3.7213134765625,0.105072021484375,0.0596466064453125,-0.2698211669921875
1783339087496286700,3.73128662109375,0.1780548095703125,0.122711181640625,-0.2869873046875
1783339087506259700,3.741259765625,0.270660400390625,0.16522216796875,-0.3048858642578125
1783339087516232700,3.751232666015625,0.365020751953125,0.1822509765625,-0.3170013427734375
1783339087526205700,3.761205810546875,0.3977813720703125,0.2003326416015625,-0.2913360595703125
1783339087536178700,3.7711787109375,0.3659515380859375,0.213409423828125,-0.234588623046875
1783339087546151700,3.781151611328125,0.2986602783203125,0.21002197265625,-0.1929473876953125
1783339087556124700,3.791124755859375,0.2323150634765625,0.2077484130859375,-0.1085205078125
1783339087566097000,3.801096923828125,0.12396240234375,0.1738128662109375,-0.0376739501953125
1783339087576069600,3.811069580078125,0.037322998046875,0.15277099609375,-0.0338287353515625
1783339087586042600,3.821042724609375,0.0496673583984375,0.200439453125,0.0753326416015625
1783339087596015600,3.831015625,0.04327392578125,0.2513427734375,0.1428070068359375
1783339087605988900,3.84098876953125,0.0203399658203125,0.312164306640625,0.1434326171875
1783339087615962000,3.850962158203125,0.0135345458984375,0.42999267578125,0.1689453125
1783339087625934800,3.860934814453125,0.0310211181640625,0.5362548828125,0.1556243896484375
1783339087635907800,3.870907958984375,0.07061767578125,0.6505889892578125,0.1171112060546875
1783339087645880800,3.880880859375,0.2077789306640625,0.9640960693359375,0.1479339599609375
1783339087655854000,3.89085400390625,0.1478729248046875,1.42132568359375,0.2825775146484375
1783339087665827000,3.9008271484375,-0.02301025390625,1.7036285400390625,0.6112213134765625
1783339087675799800,3.9107998046875,-0.0248260498046875,1.915863037109375,0.9986724853515625
1783339087685772800,3.920772705078125,0.0571746826171875,2.2400054931640625,1.2634735107421875
1783339087695746000,3.93074609375,0.09490966796875,2.502471923828125,1.4301300048828125
1783339087705719000,3.940718994140625,-0.07525634765625,2.60455322265625,1.476287841796875
1783339087715692000,3.950692138671875,-0.342620849609375,2.6412811279296875,1.4411773681640625
1783339087725664800,3.960664794921875,-0.186767578125,2.520721435546875,1.39715576171875
1783339087735637000,3.970636962890625,0.2694549560546875,2.3128662109375,1.3944549560546875
1783339087745610000,3.98060986328125,0.5747222900390625,2.243072509765625,1.4253387451171875
1783339087755582700,3.990582763671875,0.712188720703125,2.1718597412109375,1.3653564453125
1783339087765556000,4.000555908203125,0.6705169677734375,2.045013427734375,1.2203369140625
1783339087775529000,4.010529052734375,0.5481109619140625,1.902679443359375,1.08013916015625
1783339087785502000,4.020501953125,0.407989501953125,1.7444610595703125,0.989532470703125
1783339087795475000,4.030474853515625,0.23956298828125,1.5609283447265625,0.89892578125
1783339087805448000,4.040447998046875,0.1162109375,1.348480224609375,0.7997283935546875
1783339087815421000,4.0504208984375,0.0395965576171875,1.117584228515625,0.7293701171875
1783339087825394000,4.060393798828125,-0.014495849609375,0.8879547119140625,0.642669677734375
1783339087835367000,4.070366943359375,-0.05865478515625,0.671600341796875,0.5447998046875
1783339087845340000,4.08033984375,-0.147735595703125,0.485260009765625,0.4584503173828125
1783339087855313000,4.09031298828125,-0.1986083984375,0.335296630859375,0.3615875244140625
1783339087865286000,4.100285888671875,-0.1895751953125,0.2244415283203125,0.2518157958984375
1783339087875259000,4.1102587890625,-0.1553192138671875,0.1324005126953125,0.1370086669921875
1783339087885231900,4.12023193359375,-0.1086273193359375,0.0478363037109375,0.048004150390625
1783339087895205000,4.130205078125,-0.0650482177734375,-0.0334014892578125,-0.015106201171875
1783339087905176800,4.1401767578125,-0.020050048828125,-0.092620849609375,-0.0845947265625
1783339087915149800,4.15014990234375,0.0125732421875,-0.11932373046875,-0.1452484130859375
1783339087925123000,4.160123046875,0.025634765625,-0.133270263671875,-0.1953125
1783339087935096000,4.170095947265625,0.0345001220703125,-0.10528564453125,-0.2128448486328125
1783339087945068800,4.18006884765625,0.0454559326171875,-0.03729248046875,-0.185455322265625
1783339087955041800,4.190041748046875,0.0514678955078125,0.015289306640625,-0.1695404052734375
1783339087965015000,4.20001513671875,0.07025146484375,0.06842041015625,-0.154388427734375
1783339087974988000,4.209988037109375,0.1153717041015625,0.129150390625,-0.1177520751953125
1783339087984961000,4.2199609375,0.1470947265625,0.176483154296875,-0.0785369873046875
1783339087994933800,4.229933837890625,0.1539306640625,0.2081146240234375,-0.0641021728515625
1783339088004907000,4.239906982421875,0.13818359375,0.240081787109375,-0.0823822021484375
1783339088014880000,4.2498798828125,0.124237060546875,0.281097412109375,-0.1314697265625
1783339088024853000,4.25985302734375,0.1210174560546875,0.3285369873046875,-0.186004638671875
1783339088034826000,4.269825927734375,0.1064910888671875,0.3746337890625,-0.22723388671875
1783339088044799000,4.279799072265625,0.069854736328125,0.4186553955078125,-0.2641143798828125
1783339088054772000,4.28977197265625,0.0341033935546875,0.4696807861328125,-0.286651611328125
1783339088064745000,4.299744873046875,0.0126800537109375,0.541473388671875,-0.2617645263671875
1783339088074717000,4.309717041015625,-0.0069122314453125,0.6368255615234375,-0.206085205078125
1783339088084690000,4.31968994140625,-0.0175323486328125,0.731048583984375,-0.10736083984375
1783339088094663000,4.329662841796875,0.0467529296875,0.850433349609375,0.082427978515625
1783339088104636000,4.339635986328125,0.2294158935546875,0.98126220703125,0.3081207275390625
1783339088114609000,4.34960888671875,0.538238525390625,1.1392059326171875,0.55718994140625
1783339088124582000,4.359581787109375,0.8381500244140625,1.3485565185546875,0.825347900390625
1783339088134555000,4.369554931640625,0.710784912109375,1.4958038330078125,1.027740478515625
1783339088144528000,4.37952783203125,0.35052490234375,1.6147613525390625,1.2506561279296875
1783339088154500900,4.3895009765625,0.1887969970703125,1.92144775390625,1.56512451171875
1783339088164474000,4.39947412109375,0.0751190185546875,2.1938323974609375,1.7764739990234375
1783339088174446800,4.40944677734375,-0.1321258544921875,2.162994384765625,1.69061279296875
1783339088184419800,4.419419921875,-0.3253173828125,2.041412353515625,1.572265625
1783339088194392800,4.429392822265625,-0.2458343505859375,1.940643310546875,1.5568389892578125
1783339088204366000,4.439365966796875,0.050445556640625,1.8689727783203125,1.5923309326171875
1783339088214339000,4.449339111328125,0.2992706298828125,1.8891754150390625,1.667572021484375
1783339088224311800,4.459311767578125,0.413543701171875,1.99639892578125,1.720001220703125
1783339088234284800,4.469284912109375,0.342437744140625,2.0529937744140625,1.5834503173828125
1783339088244257000,4.479257080078125,0.2197265625,2.0308074951171875,1.3226470947265625
1783339088254230000,4.48922998046875,0.1143035888671875,1.9149169921875,0.9986724853515625
1783339088264202800,4.49920263671875,0.0403594970703125,1.7509765625,0.72418212890625
1783339088274176000,4.509176025390625,0.02783203125,1.565399169921875,0.544830322265625
1783339088284149000,4.51914892578125,0.07598876953125,1.38177490234375,0.4367218017578125
1783339088294122000,4.5291220703125,0.13592529296875,1.215789794921875,0.33489990234375
1783339088304095000,4.539094970703125,0.18365478515625,1.06182861328125,0.210906982421875
1783339088314068000,4.54906787109375,0.2532501220703125,0.890838623046875,0.0756988525390625
1783339088324041000,4.559041015625,0.3328094482421875,0.70721435546875,-0.030914306640625
1783339088334014000,4.569013916015625,0.3765411376953125,0.5100555419921875,-0.0706787109375
1783339088343987000,4.578987060546875,0.3639373779296875,0.3223419189453125,-0.0596923828125
1783339088353960000,4.5889599609375,0.314453125,0.1648101806640625,-0.0353546142578125
1783339088363933000,4.598932861328125,0.244293212890625,0.037841796875,-0.016815185546875
1783339088373906000,4.608906005859375,0.1558380126953125,-0.0430450439453125,0.0023193359375
1783339088383879000,4.61887890625,0.04693603515625,-0.104400634765625,0.0084381103515625
1783339088393852000,4.628851806640625,-0.0605926513671875,-0.1636505126953125,0.0023651123046875
1783339088403825200,4.6388251953125,-0.14373779296875,-0.2095947265625,-0.0000457763671875
1783339088413798000,4.6487978515625,-0.1882171630859375,-0.2286834716796875,-0.00103759765625
1783339088423769900,4.658769775390625,-0.178131103515625,-0.2265777587890625,-0.0196685791015625
1783339088433743000,4.6687431640625,-0.1379852294921875,-0.19940185546875,-0.0544281005859375
1783339088443715800,4.6787158203125,-0.088836669921875,-0.112548828125,-0.0600738525390625
1783339088453688800,4.688688720703125,-0.022216796875,0.0024566650390625,-0.0302581787109375
1783339088463661800,4.698661865234375,0.05963134765625,0.094757080078125,-0.03167724609375
1783339088473635000,4.708635009765625,0.13726806640625,0.1771240234375,-0.0396270751953125
1783339088483608000,4.718608154296875,0.198333740234375,0.2406463623046875,-0.05316162109375
1783339088493580800,4.728580810546875,0.23760986328125,0.2879638671875,-0.0605621337890625
1783339088503553800,4.7385537109375,0.2231597900390625,0.32440185546875,-0.08563232421875
1783339088513527000,4.748527099609375,0.2037506103515625,0.3739471435546875,-0.1142120361328125
1783339088523500000,4.7585,0.199188232421875,0.4430999755859375,-0.133087158203125
1783339088533473000,4.76847314453125,0.181976318359375,0.533905029296875,-0.15771484375
1783339088543445800,4.77844580078125,0.140411376953125,0.6463623046875,-0.1721343994140625
1783339088553418800,4.788418701171875,0.1071014404296875,0.7847747802734375,-0.1529541015625
1783339088563392000,4.79839208984375,0.1215972900390625,0.9351348876953125,-0.072540283203125
1783339088573365000,4.808364990234375,0.202606201171875,1.0563812255859375,0.108428955078125
1783339088583338000,4.818337890625,0.3650054931640625,1.172821044921875,0.31927490234375
1783339088593310700,4.828310791015625,0.429473876953125,1.3397979736328125,0.4858856201171875
1783339088603284000,4.838283935546875,0.3217926025390625,1.4795989990234375,0.6668548583984375
1783339088613256200,4.848256103515625,0.271240234375,1.71160888671875,0.912872314453125
1783339088623229000,4.85822900390625,0.285797119140625,2.0030975341796875,1.1751861572265625
1783339088633202200,4.8682021484375,0.163482666015625,2.20465087890625,1.40643310546875
1783339088643175200,4.878175048828125,-0.07452392578125,2.315093994140625,1.53741455078125
1783339088653148200,4.888148193359375,-0.2548370361328125,2.4027862548828125,1.5456390380859375
1783339088663121200,4.89812109375,-0.13018798828125,2.3534393310546875,1.4369964599609375
1783339088673094100,4.90809423828125,0.0971527099609375,2.3656463623046875,1.4315338134765625
1783339088683067100,4.918067138671875,0.1819610595703125,2.4567108154296875,1.48455810546875
1783339088693040000,4.9280400390625,0.235015869140625,2.450103759765625,1.4148406982421875
1783339088703013000,4.93801318359375,0.2566986083984375,2.3180999755859375,1.271697998046875
1783339088712986000,4.947986083984375,0.2524261474609375,2.083221435546875,1.124420166015625
1783339088722959000,4.957958984375,0.237457275390625,1.8306121826171875,0.9739227294921875
1783339088732932000,4.96793212890625,0.1928558349609375,1.6468963623046875,0.865203857421875
1783339088742905000,4.977905029296875,0.1439666748046875,1.4712066650390625,0.778289794921875
1783339088752878000,4.987878173828125,0.119415283203125,1.2422027587890625,0.6624298095703125
1783339088762851300,4.997851318359375,0.127593994140625,0.9757843017578125,0.5415191650390625
1783339088772824000,5.007823974609375,0.1525421142578125,0.727569580078125,0.4639129638671875
1783339088782797000,5.017797119140625,0.1790618896484375,0.509796142578125,0.401336669921875
1783339088792770000,5.02777001953125,0.1991119384765625,0.3297576904296875,0.3611602783203125
1783339088802742300,5.0377421875,0.2106170654296875,0.1824798583984375,0.3318939208984375
1783339088812715000,5.047715087890625,0.1881256103515625,0.075653076171875,0.2808380126953125
1783339088822688000,5.05768798828125,0.12945556640625,-0.0083160400390625,0.2235260009765625
1783339088832661200,5.0676611328125,0.061553955078125,-0.0758209228515625,0.15142822265625
1783339088842634200,5.07763427734375,-0.0020904541015625,-0.1261138916015625,0.0757904052734375
1783339088852607200,5.087607177734375,-0.050811767578125,-0.16668701171875,0.024383544921875
1783339088862580000,5.097580078125,-0.08477783203125,-0.190704345703125,0.0059661865234375
1783339088872553200,5.10755322265625,-0.093902587890625,-0.2074737548828125,-0.014739990234375
1783339088882526200,5.117526123046875,-0.063690185546875,-0.2142333984375,-0.0500030517578125
1783339088892499200,5.127499267578125,-0.0032958984375,-0.180755615234375,-0.0695648193359375
1783339088902472000,5.137471923828125,0.0392913818359375,-0.123931884765625,-0.0906829833984375
1783339088912445200,5.147445068359375,0.05462646484375,-0.0578155517578125,-0.1280670166015625
1783339088922418200,5.157418212890625,0.064483642578125,0.0212249755859375,-0.1708526611328125
1783339088932391200,5.16739111328125,0.0745697021484375,0.1054229736328125,-0.218170166015625
1783339088942364200,5.1773642578125,0.0809783935546875,0.1862945556640625,-0.2560577392578125
1783339088952337200,5.187337158203125,0.0922393798828125,0.2570953369140625,-0.2513275146484375
1783339088962310100,5.19731005859375,0.0899810791015625,0.3165283203125,-0.2154998779296875
1783339088972282000,5.2072822265625,0.079681396484375,0.3666534423828125,-0.194793701171875
1783339088982255000,5.217255126953125,0.0669097900390625,0.420928955078125,-0.1885986328125
1783339088992228000,5.22722802734375,0.0392303466796875,0.4768218994140625,-0.14990234375
1783339089002201000,5.237201171875,0.021209716796875,0.54339599609375,-0.09307861328125
1783339089012174000,5.247174072265625,0.0330963134765625,0.63922119140625,-0.01171875
1783339089022147000,5.25714697265625,0.0318756103515625,0.7452545166015625,0.0884857177734375
1783339089032120300,5.267120361328125,0.100189208984375,0.8360137939453125,0.1994476318359375
1783339089042093000,5.277093017578125,0.3921356201171875,0.953948974609375,0.2702484130859375
1783339089052066000,5.287066162109375,0.8533935546875,1.1744232177734375,0.3614349365234375
1783339089062039000,5.2970390625,0.871307373046875,1.383148193359375,0.6448974609375
1783339089072012300,5.30701220703125,0.3517303466796875,1.346832275390625,0.8985595703125
1783339089081985300,5.3169853515625,0.052825927734375,1.5350799560546875,1.172882080078125
1783339089091958000,5.3269580078125,-0.091552734375,1.9717864990234375,1.5356903076171875
1783339089101931000,5.336930908203125,-0.3073577880859375,2.35186767578125,1.8233184814453125
1783339089111904300,5.346904296875,-0.4660797119140625,2.5073089599609375,1.8672943115234375
1783339089121877200,5.356877197265625,-0.47283935546875,2.5702667236328125,1.66314697265625
1783339089131850200,5.366850341796875,-0.2350921630859375,2.57666015625,1.387115478515625
1783339089141823000,5.376822998046875,0.1939849853515625,2.579833984375,1.3319244384765625
1783339089151796200,5.386796142578125,0.599853515625,2.529266357421875,1.4152679443359375
1783339089161769200,5.396769287109375,0.6220855712890625,2.148040771484375,1.3173980712890625
1783339089171742200,5.4067421875,0.4337158203125,1.853118896484375,1.184356689453125
1783339089181715200,5.416715087890625,0.2569732666015625,1.6575164794921875,1.0819244384765625
1783339089191688000,5.42668798828125,0.1480560302734375,1.5419158935546875,0.9393310546875
1783339089201661200,5.4366611328125,0.085296630859375,1.40631103515625,0.8105926513671875
1783339089211634200,5.44663427734375,0.034576416015625,1.2283172607421875,0.682403564453125
1783339089221607200,5.456607177734375,0.026397705078125,0.999267578125,0.53228759765625
1783339089231580000,5.466579833984375,0.045928955078125,0.78955078125,0.4341278076171875
1783339089241552100,5.47655224609375,0.1070556640625,0.5866241455078125,0.365753173828125
1783339089251525000,5.486525146484375,0.1893310546875,0.3824462890625,0.3189849853515625
1783339089261498000,5.496498046875,0.2272796630859375,0.1998291015625,0.3024444580078125
1783339089271471000,5.50647119140625,0.221710205078125,0.0665130615234375,0.2673797607421875
1783339089281444000,5.516444091796875,0.15386962890625,-0.0165863037109375,0.1778106689453125
1783339089291417000,5.5264169921875,0.0720367431640625,-0.0601654052734375,0.0833282470703125
1783339089301390000,5.53639013671875,-0.0089111328125,-0.10107421875,0.0094146728515625
1783339089311363300,5.54636328125,-0.071014404296875,-0.14044189453125,-0.0460052490234375
1783339089321336000,5.556336181640625,-0.1067962646484375,-0.1765899658203125,-0.0656280517578125
1783339089331309000,5.56630908203125,-0.0890350341796875,-0.1955413818359375,-0.0811004638671875
1783339089341282000,5.576281982421875,-0.0256805419921875,-0.1943206787109375,-0.103912353515625
1783339089351255300,5.58625537109375,0.0431671142578125,-0.1697540283203125,-0.1206207275390625
1783339089361228300,5.596228271484375,0.0929718017578125,-0.1392364501953125,-0.147857666015625
1783339089371201000,5.606200927734375,0.1318817138671875,-0.0862884521484375,-0.154296875
1783339089381174000,5.616174072265625,0.1696319580078125,-0.0029144287109375,-0.144287109375
1783339089391147300,5.626147216796875,0.1975555419921875,0.0903472900390625,-0.1279296875
1783339089401120300,5.636120361328125,0.2048492431640625,0.1724090576171875,-0.1339111328125
1783339089411092000,5.646092041015625,0.173614501953125,0.2367401123046875,-0.1456146240234375
1783339089421065200,5.656065185546875,0.1241455078125,0.2965087890625,-0.1842041015625
1783339089431038200,5.6660380859375,0.1175689697265625,0.3816986083984375,-0.2175140380859375
1783339089441011200,5.67601123046875,0.112396240234375,0.467376708984375,-0.2383270263671875
1783339089450984200,5.685984130859375,0.0919342041015625,0.54876708984375,-0.2581634521484375
1783339089460957000,5.69595703125,0.0659942626953125,0.6457977294921875,-0.2583465576171875
1783339089470930200,5.70593017578125,0.0341339111328125,0.776763916015625,-0.2402801513671875
1783339089480903200,5.715903076171875,-0.0020599365234375,0.9339447021484375,-0.2129364013671875
1783339089490876200,5.725876220703125,-0.0191650390625,1.110931396484375,-0.1257781982421875
1783339089500849200,5.73584912109375,0.1050872802734375,1.30145263671875,0.111602783203125
1783339089510822100,5.745822265625,0.406982421875,1.5646820068359375,0.3554840087890625
1783339089520795100,5.755795166015625,0.814544677734375,1.90985107421875,0.6529083251953125
1783339089530768100,5.76576806640625,0.9518585205078125,1.9367218017578125,1.209808349609375
1783339089540740400,5.775740234375,0.7252044677734375,1.7002716064453125,1.4921112060546875
1783339089550713000,5.785713134765625,0.5075225830078125,1.5948333740234375,1.628570556640625
1783339089560686000,5.79568603515625,0.17462158203125,1.5543060302734375,1.7808837890625
1783339089570659000,5.8056591796875,-0.1500244140625,1.6286773681640625,1.9026336669921875
1783339089580632300,5.81563232421875,-0.412567138671875,1.6849365234375,1.9420013427734375
1783339089590605000,5.82560498046875,-0.4029388427734375,1.6496734619140625,1.778472900390625
1783339089600578000,5.835578125,-0.026824951171875,1.684417724609375,1.693267822265625
1783339089610551600,5.845551513671875,0.214508056640625,1.8938140869140625,1.767730712890625
1783339089620524500,5.855524658203125,0.1069488525390625,2.1244964599609375,1.594329833984375
1783339089630497800,5.865497802734375,-0.0378875732421875,2.305267333984375,1.351593017578125
1783339089640470800,5.875470703125,-0.0156097412109375,2.3764495849609375,1.23779296875
1783339089650443500,5.885443603515625,0.0366668701171875,2.2872772216796875,1.1040191650390625
1783339089660416500,5.89541650390625,0.085052490234375,2.0891876220703125,0.9795379638671875
1783339089670389800,5.9053896484375,0.1220245361328125,1.890380859375,0.8952178955078125
1783339089680362800,5.91536279296875,0.1389312744140625,1.6818389892578125,0.8136749267578125
1783339089690335700,5.925335693359375,0.173065185546875,1.4302825927734375,0.6941680908203125
1783339089700308500,5.93530859375,0.239898681640625,1.1544342041015625,0.56671142578125
1783339089710280700,5.94528076171875,0.307098388671875,0.8697052001953125,0.44989013671875
1783339089720253700,5.955253662109375,0.3578643798828125,0.61773681640625,0.3791656494140625
1783339089730226400,5.965226318359375,0.3895111083984375,0.406036376953125,0.33697509765625
1783339089740199700,5.97519970703125,0.3648681640625,0.2207794189453125,0.2884979248046875
1783339089750172700,5.985172607421875,0.2495574951171875,0.0836944580078125,0.2441558837890625
1783339089760145700,5.995145751953125,0.1343231201171875,-0.0139007568359375,0.1827545166015625
1783339089770118700,6.00511865234375,0.0508270263671875,-0.0920257568359375,0.0914459228515625
1783339089780091600,6.015091552734375,-0.011627197265625,-0.1526336669921875,0.0118560791015625
1783339089790064600,6.025064697265625,-0.0663604736328125,-0.190399169921875,-0.0561676025390625
1783339089800037600,6.03503759765625,-0.0914764404296875,-0.2159271240234375,-0.0997314453125
1783339089810010600,6.0450107421875,-0.0642242431640625,-0.245391845703125,-0.1239776611328125
1783339089819983600,6.054983642578125,0.0108795166015625,-0.2874603271484375,-0.1494293212890625
1783339089829956600,6.06495654296875,0.083770751953125,-0.3209686279296875,-0.186492919921875
1783339089839929600,6.0749296875,0.14056396484375,-0.3410797119140625,-0.23486328125
1783339089849902600,6.084902587890625,0.185333251953125,-0.3294677734375,-0.2939300537109375
1783339089859875600,6.09487548828125,0.2129974365234375,-0.2327423095703125,-0.2834625244140625
1783339089869848800,6.104848876953125,0.21832275390625,-0.086273193359375,-0.23626708984375
1783339089879821600,6.114821533203125,0.21051025390625,0.0336151123046875,-0.2062225341796875
1783339089889793500,6.12479345703125,0.1636199951171875,0.1195831298828125,-0.162109375
1783339089899766800,6.134766845703125,0.0921173095703125,0.201171875,-0.132965087890625
1783339089909739800,6.14473974609375,0.049407958984375,0.29827880859375,-0.1099700927734375
1783339089919712500,6.15471240234375,-0.0064849853515625,0.3809967041015625,-0.1046600341796875
1783339089929685500,6.164685546875,-0.075408935546875,0.4739990234375,-0.0905609130859375
1783339089939658800,6.17465869140625,-0.1104278564453125,0.5613555908203125,-0.066375732421875
1783339089949631700,6.1846318359375,-0.12591552734375,0.6435699462890625,-0.013427734375
1783339089959604700,6.194604736328125,-0.096893310546875,0.7471160888671875,0.08270263671875
1783339089969577500,6.204577392578125,0.1286163330078125,0.9028167724609375,0.1950836181640625
1783339089979550700,6.21455078125,0.64849853515625,1.1445465087890625,0.356048583984375
1783339089989523700,6.224523681640625,1.0135498046875,1.3698883056640625,0.64996337890625
1783339089999496700,6.23449658203125,0.79229736328125,1.3450775146484375,0.9128265380859375
1783339090009469700,6.2444697265625,0.299407958984375,1.264801025390625,0.9653167724609375
1783339090019442400,6.2544423828125,-0.07293701171875,1.449188232421875,1.0961456298828125
1783339090029415700,6.264415771484375,-0.3267974853515625,1.79052734375,1.443206787109375
1783339090039388700,6.274388671875,-0.4114227294921875,2.095611572265625,1.8231353759765625
1783339090049361700,6.284361572265625,-0.2736663818359375,2.2244873046875,1.977935791015625
1783339090059334400,6.29433447265625,-0.028167724609375,2.1911773681640625,1.8527374267578125
1783339090069306600,6.304306640625,0.27703857421875,2.0895538330078125,1.6732330322265625
1783339090079279600,6.314279541015625,0.5364990234375,2.0449371337890625,1.6485137939453125
1783339090089252600,6.324252685546875,0.5631256103515625,2.1154632568359375,1.689117431640625
1783339090099225600,6.3342255859375,0.3549652099609375,2.151458740234375,1.5988922119140625
1783339090109198600,6.344198486328125,0.13995361328125,2.157318115234375,1.448822021484375
1783339090119171600,6.354171630859375,0.0144500732421875,2.09979248046875,1.225616455078125
1783339090129144600,6.36414453125,-0.0001373291015625,1.9708709716796875,1.02691650390625
1783339090139117800,6.374117919921875,0.012115478515625,1.7909698486328125,0.9315338134765625
1783339090149090600,6.384090576171875,0.0495147705078125,1.5622711181640625,0.9008026123046875
1783339090159063600,6.3940634765625,0.115264892578125,1.277069091796875,0.8713836669921875
1783339090169036500,6.40403662109375,0.1756439208984375,1.004150390625,0.8751678466796875
1783339090179009800,6.414009765625,0.2591705322265625,0.753875732421875,0.85284423828125
1783339090188982800,6.423982666015625,0.3354034423828125,0.522369384765625,0.803741455078125
1783339090198955500,6.43395556640625,0.3589935302734375,0.323272705078125,0.711334228515625
1783339090208928500,6.443928466796875,0.2911376953125,0.1895904541015625,0.5987091064453125
1783339090218901800,6.45390185546875,0.1712188720703125,0.0984344482421875,0.4853973388671875
1783339090228874800,6.463874755859375,0.0577239990234375,0.0323486328125,0.3510284423828125
1783339090238846500,6.473846435546875,-0.02685546875,-0.0154876708984375,0.2308807373046875
1783339090248819700,6.48381982421875,-0.0622100830078125,-0.046783447265625,0.1288604736328125
1783339090258792700,6.493792724609375,-0.0493927001953125,-0.07073974609375,0.0503997802734375
1783339090268765700,6.503765625,-0.01336669921875,-0.0894317626953125,-0.0116119384765625
1783339090278738700,6.51373876953125,0.0213775634765625,-0.0960845947265625,-0.0585479736328125
1783339090288711400,6.52371142578125,0.0381011962890625,-0.099639892578125,-0.08905029296875
1783339090298684700,6.5336845703125,0.0385894775390625,-0.106903076171875,-0.108306884765625
1783339090308657700,6.54365771484375,0.04620361328125,-0.1095123291015625,-0.119842529296875
1783339090318630700,6.553630615234375,0.057403564453125,-0.0994110107421875,-0.1259918212890625
1783339090328603600,6.563603759765625,0.059234619140625,-0.0701141357421875,-0.119903564453125
1783339090338576600,6.57357666015625,0.0549468994140625,-0.008819580078125,-0.09710693359375
1783339090348549600,6.583549560546875,0.04449462890625,0.055419921875,-0.060760498046875
1783339090358522600,6.593522705078125,0.020599365234375,0.0902862548828125,-0.019500732421875
1783339090368495600,6.60349560546875,-0.0018768310546875,0.1003265380859375,0.0058441162109375
1783339090378468900,6.61346875,-0.0175933837890625,0.108734130859375,0.0147247314453125
1783339090388441600,6.623441650390625,-0.0268402099609375,0.12823486328125,0.016632080078125
1783339090398414600,6.63341455078125,-0.0222930908203125,0.1635589599609375,0.0143585205078125
1783339090408386800,6.64338671875,-0.015350341796875,0.201873779296875,-0.009307861328125
1783339090418359600,6.653359619140625,-0.010040283203125,0.25640869140625,-0.023406982421875
1783339090428332500,6.66333251953125,0.0154571533203125,0.340423583984375,-0.0257568359375
1783339090438305500,6.673305419921875,0.0713653564453125,0.4499969482421875,0.006622314453125
1783339090448278800,6.68327880859375,0.1757049560546875,0.581817626953125,0.0558929443359375
1783339090458251800,6.693251708984375,0.4312744140625,0.7947540283203125,0.1390228271484375
1783339090468224500,6.703224609375,0.644256591796875,1.1935882568359375,0.259063720703125
1783339090478197500,6.713197509765625,0.323150634765625,1.5994873046875,0.416229248046875
1783339090488170500,6.72317041015625,0.1575164794921875,1.950347900390625,0.784423828125
1783339090498143700,6.733143798828125,0.2916259765625,2.3775787353515625,1.331329345703125
1783339090508116700,6.74311669921875,0.7068023681640625,2.6399688720703125,1.95379638671875
1783339090518089500,6.75308935546875,0.7428131103515625,2.351898193359375,2.5135650634765625
1783339090528062500,6.7630625,0.4249725341796875,1.9209442138671875,2.6194000244140625
1783339090538035700,6.77303564453125,0.348419189453125,1.711669921875,2.5077056884765625
1783339090548008700,6.7830087890625,0.3160247802734375,1.59112548828125,2.209564208984375
1783339090557981700,6.792981689453125,0.0136871337890625,1.6060791015625,1.806549072265625
1783339090567954400,6.802954345703125,-0.201080322265625,1.6411285400390625,1.54913330078125
1783339090577927700,6.812927734375,-0.1579742431640625,1.733154296875,1.49176025390625
1783339090587899600,6.822899658203125,-0.0790252685546875,1.855712890625,1.4763641357421875
1783339090597872600,6.83287255859375,-0.05364990234375,1.874053955078125,1.3335113525390625
1783339090607845600,6.842845703125,-0.0535888671875,1.8176727294921875,1.1051177978515625
1783339090617818400,6.852818359375,-0.0352020263671875,1.7220306396484375,0.884796142578125
1783339090627791400,6.862791259765625,0.030303955078125,1.576385498046875,0.6612091064453125
1783339090637764000,6.87276416015625,0.1220245361328125,1.389617919921875,0.4506072998046875
1783339090647737300,6.8827373046875,0.2350616455078125,1.16680908203125,0.308319091796875
1783339090657710300,6.89271044921875,0.3449554443359375,0.923095703125,0.182220458984375
1783339090667683300,6.902683349609375,0.4259796142578125,0.6786041259765625,0.063690185546875
1783339090677656300,6.91265625,0.4670562744140625,0.457275390625,0.0209503173828125
1783339090687629300,6.92262939453125,0.4768829345703125,0.2857513427734375,0.0770111083984375
1783339090697602300,6.932602294921875,0.4408111572265625,0.15625,0.142333984375
1783339090707575300,6.9425751953125,0.3349151611328125,0.0499267578125,0.182861328125
1783339090717548300,6.95254833984375,0.1712799072265625,-0.040283203125,0.202972412109375
1783339090727521500,6.962521484375,-0.0308685302734375,-0.1112213134765625,0.2183837890625
1783339090737494300,6.972494384765625,-0.229278564453125,-0.17877197265625,0.243682861328125
1783339090747467300,6.98246728515625,-0.3644256591796875,-0.2369384765625,0.2552337646484375
1783339090757439500,6.992439453125,-0.396728515625,-0.27777099609375,0.2677764892578125
1783339090767412200,7.002412109375,-0.3434295654296875,-0.3021087646484375,0.2735748291015625
1783339090777385200,7.01238525390625,-0.229583740234375,-0.3289642333984375,0.2176971435546875
1783339090787358200,7.022358154296875,-0.09075927734375,-0.342681884765625,0.117950439453125
1783339090797331500,7.03233154296875,0.031219482421875,-0.3399810791015625,0.0189361572265625
1783339090807304400,7.042304443359375,0.1186981201171875,-0.3128814697265625,-0.0550994873046875
1783339090817277200,7.052277099609375,0.168121337890625,-0.2191162109375,-0.09130859375
1783339090827250200,7.062250244140625,0.1769256591796875,-0.0558319091796875,-0.065155029296875
1783339090837223200,7.07222314453125,0.17193603515625,0.077423095703125,-0.0576629638671875
1783339090847196400,7.082196533203125,0.1685028076171875,0.1618804931640625,-0.0829010009765625
1783339090857169400,7.09216943359375,0.16070556640625,0.232269287109375,-0.1003570556640625
1783339090867142100,7.10214208984375,0.1475830078125,0.304412841796875,-0.0987548828125
1783339090877115100,7.112115234375,0.1029205322265625,0.381561279296875,-0.0793609619140625
1783339090887088400,7.12208837890625,0.0486602783203125,0.47821044921875,-0.041656494140625
1783339090897061400,7.132061279296875,0.06817626953125,0.5933074951171875,-0.0027008056640625
1783339090907034400,7.142034423828125,0.1125030517578125,0.7085723876953125,0.0141448974609375
1783339090917006300,7.15200634765625,0.0992431640625,0.837738037109375,0.062530517578125
1783339090926979300,7.161979248046875,0.0623931884765625,0.9993896484375,0.17620849609375
1783339090936952300,7.171952392578125,-0.016845703125,1.1911468505859375,0.3751373291015625
1783339090946925300,7.18192529296875,0.0347442626953125,1.531768798828125,0.6780853271484375
1783339090956898300,7.191898193359375,0.1908111572265625,1.9163665771484375,1.09112548828125
1783339090966871300,7.201871337890625,0.3876190185546875,2.102294921875,1.564361572265625
1783339090976844300,7.21184423828125,0.420654296875,1.998321533203125,1.9449462890625
1783339090986817300,7.2218173828125,0.2817840576171875,1.756927490234375,2.0643310546875
1783339090996790500,7.23179052734375,0.0570526123046875,1.56536865234375,1.99310302734375
1783339091006763300,7.24176318359375,0.011260986328125,1.4815826416015625,1.852142333984375
1783339091016736300,7.251736328125,0.226837158203125,1.5832977294921875,1.6285247802734375
1783339091026709200,7.261709228515625,0.2111968994140625,1.8258209228515625,1.3820953369140625
1783339091036682200,7.27168212890625,0.006927490234375,2.0121917724609375,1.1605682373046875
1783339091046655500,7.281655517578125,-0.1483917236328125,2.1256256103515625,1.138214111328125
1783339091056628200,7.291628173828125,-0.17376708984375,2.1596832275390625,1.230072021484375
1783339091066601200,7.301601318359375,-0.1193695068359375,2.050018310546875,1.23150634765625
1783339091076574200,7.31157421875,-0.0422210693359375,1.8496246337890625,1.1936492919921875
1783339091086547500,7.32154736328125,0.031280517578125,1.6308441162109375,1.1910400390625
1783339091096519200,7.331519287109375,0.103912353515625,1.4123077392578125,1.126708984375
1783339091106492200,7.3414921875,0.1700286865234375,1.1984710693359375,0.970550537109375
1783339091116465400,7.35146533203125,0.221099853515625,0.9631195068359375,0.8138580322265625
1783339091126438400,7.3614384765625,0.261444091796875,0.70758056640625,0.6904754638671875
1783339091136411100,7.3714111328125,0.2950592041015625,0.4907073974609375,0.6330413818359375
1783339091146384100,7.381384033203125,0.2963104248046875,0.329010009765625,0.62457275390625
1783339091156357400,7.391357421875,0.2688751220703125,0.196136474609375,0.5985870361328125
1783339091166330400,7.401330322265625,0.18792724609375,0.102813720703125,0.51544189453125
1783339091176303400,7.411303466796875,0.0955352783203125,0.0157012939453125,0.3773956298828125
1783339091186276000,7.421276123046875,0.010894775390625,-0.0655975341796875,0.220367431640625
1783339091196249300,7.431249267578125,-0.0487518310546875,-0.1207275390625,0.0863494873046875
1783339091206222300,7.441222412109375,-0.0795440673828125,-0.1554718017578125,-0.0034942626953125
1783339091216195300,7.4511953125,-0.0986175537109375,-0.1727294921875,-0.06304931640625
1783339091226168300,7.461168212890625,-0.114349365234375,-0.1735992431640625,-0.1164398193359375
1783339091236141300,7.471141357421875,-0.0973052978515625,-0.16357421875,-0.1626434326171875
1783339091246114300,7.4811142578125,-0.050262451171875,-0.1465606689453125,-0.206207275390625
1783339091256087300,7.49108740234375,0.00750732421875,-0.119110107421875,-0.2373504638671875
1783339091266059500,7.5010595703125,0.0514373779296875,-0.0654449462890625,-0.26513671875
1783339091276032300,7.5110322265625,0.076019287109375,0.0362548828125,-0.2743377685546875
1783339091286005200,7.521005126953125,0.1152496337890625,0.1692047119140625,-0.246002197265625
1783339091295978200,7.530978271484375,0.1598663330078125,0.2698211669921875,-0.213470458984375
1783339091305951200,7.540951171875,0.173858642578125,0.3622894287109375,-0.16497802734375
1783339091315924500,7.550924560546875,0.1564788818359375,0.4516143798828125,-0.095703125
1783339091325897200,7.560897216796875,0.1362762451171875,0.520843505859375,-0.0340118408203125
1783339091335870200,7.5708701171875,0.124847412109375,0.5715484619140625,0.020233154296875
1783339091345843200,7.58084326171875,0.102264404296875,0.606353759765625,0.078704833984375
1783339091355816400,7.59081640625,0.0792694091796875,0.6407928466796875,0.159637451171875
1783339091365789400,7.60078955078125,0.1211700439453125,0.6859588623046875,0.2484893798828125
1783339091375762200,7.61076220703125,0.293609619140625,0.7760772705078125,0.338897705078125
1783339091385735200,7.620735107421875,0.6161651611328125,0.91192626953125,0.497528076171875
1783339091395708400,7.63070849609375,0.8988494873046875,1.0521240234375,0.7050323486328125
1783339091405681400,7.640681396484375,0.86297607421875,1.134307861328125,0.90869140625
1783339091415654100,7.650654052734375,0.476409912109375,1.1098175048828125,1.0513458251953125
1783339091425627100,7.660627197265625,0.12353515625,1.22564697265625,1.2551116943359375
1783339091435599400,7.670599365234375,-0.0920562744140625,1.5786590576171875,1.592498779296875
1783339091445572400,7.680572265625,-0.2309417724609375,1.9557647705078125,1.9805755615234375
1783339091455545000,7.690545166015625,-0.130645751953125,2.1226806640625,2.1229095458984375
1783339091465518300,7.700518310546875,0.1795196533203125,2.021514892578125,1.990509033203125
1783339091475491300,7.7104912109375,0.3968353271484375,1.849517822265625,1.8734130859375
1783339091485464300,7.72046435546875,0.3740692138671875,1.748504638671875,1.7181854248046875
1783339091495437300,7.730437255859375,0.34283447265625,1.72869873046875,1.5669403076171875
1783339091505410300,7.740410400390625,0.2869720458984375,1.7740478515625,1.5398712158203125
1783339091515383300,7.75038330078125,0.2089385986328125,1.826019287109375,1.5666961669921875
1783339091525356300,7.760356201171875,0.173248291015625,1.8011627197265625,1.4954071044921875
1783339091535329300,7.770329345703125,0.1841583251953125,1.68017578125,1.3285980224609375
1783339091545302300,7.78030224609375,0.19158935546875,1.518829345703125,1.1683349609375
1783339091555275300,7.790275146484375,0.1918182373046875,1.366455078125,1.0614166259765625
1783339091565248300,7.800248291015625,0.1941375732421875,1.1886444091796875,0.9491729736328125
1783339091575221200,7.81022119140625,0.2253265380859375,0.955902099609375,0.793731689453125
1783339091585194200,7.8201943359375,0.28961181640625,0.7247772216796875,0.6588134765625
1783339091595167500,7.83016748046875,0.34161376953125,0.514617919921875,0.5500946044921875
1783339091605140200,7.84014013671875,0.34906005859375,0.3299407958984375,0.4261474609375
1783339091615112200,7.8501123046875,0.353515625,0.155487060546875,0.3088836669921875
1783339091625085400,7.86008544921875,0.3526611328125,0.002532958984375,0.2060394287109375
1783339091635058400,7.870058349609375,0.31536865234375,-0.1078033447265625,0.0993194580078125
1783339091645031200,7.88003125,0.23516845703125,-0.182403564453125,0.014862060546875
1783339091655004200,7.890004150390625,0.13916015625,-0.2118377685546875,-0.0446624755859375
1783339091664977400,7.899977294921875,0.0309906005859375,-0.20635986328125,-0.0712738037109375
1783339091674950400,7.909950439453125,-0.061553955078125,-0.18359375,-0.0865631103515625
1783339091684923400,7.91992333984375,-0.10699462890625,-0.161041259765625,-0.111480712890625
1783339091694896000,7.929896240234375,-0.077056884765625,-0.1341552734375,-0.1532440185546875
1783339091704869400,7.939869384765625,0.0214996337890625,-0.0936279296875,-0.185760498046875
1783339091714842400,7.94984228515625,0.1241455078125,-0.0400848388671875,-0.1785736083984375
1783339091724815400,7.9598154296875,0.197998046875,0.0049285888671875,-0.1304473876953125
1783339091734788400,7.969788330078125,0.2496185302734375,0.0251312255859375,-0.0413665771484375
1783339091744761300,7.97976123046875,0.2627716064453125,0.0352783203125,0.04278564453125
1783339091754734300,7.989734375,0.2295074462890625,0.0507965087890625,0.08642578125
1783339091764707300,7.999707275390625,0.1627349853515625,0.076446533203125,0.0979766845703125
1783339091774680300,8.009680419921875,0.100433349609375,0.118438720703125,0.0901947021484375
1783339091784652300,8.01965234375,0.0692901611328125,0.1872100830078125,0.089996337890625
1783339091794625300,8.029625244140625,0.057586669921875,0.264556884765625,0.085968017578125
1783339091804598300,8.039598388671875,0.02569580078125,0.3375396728515625,0.0652618408203125
1783339091814571300,8.0495712890625,0.00421142578125,0.4170684814453125,0.03814697265625
1783339091824544300,8.059544189453124,0.030059814453125,0.5074615478515625,-0.004730224609375
1783339091834517200,8.069517333984376,0.0823516845703125,0.632354736328125,-0.05859375
1783339091844490200,8.079490234375,0.0931854248046875,0.78839111328125,-0.08294677734375
1783339091854463200,8.089463134765625,0.130126953125,0.96075439453125,0.0400848388671875
1783339091864436500,8.0994365234375,0.2072296142578125,1.1685333251953125,0.2393646240234375
1783339091874409200,8.1094091796875,0.1484832763671875,1.4136810302734375,0.5625
1783339091884382200,8.11938232421875,-0.0011138916015625,1.656585693359375,1.114013671875
1783339091894355200,8.129355224609375,-0.077880859375,1.855194091796875,1.639068603515625
1783339091904328400,8.139328369140625,-0.0224609375,2.1364288330078125,2.1756439208984375
1783339091914301400,8.149301513671874,0.1342620849609375,2.3942413330078125,2.717041015625
1783339091924274200,8.159274169921876,0.3500823974609375,2.30816650390625,2.829742431640625
1783339091934247200,8.1692470703125,0.5721893310546875,1.928070068359375,2.4277496337890625
1783339091944220400,8.179220458984375,0.645843505859375,1.5079345703125,1.8834075927734375
1783339091954192400,8.1891923828125,0.4240875244140625,1.4165496826171875,1.6674957275390625
1783339091964165000,8.1991650390625,0.1627349853515625,1.4739227294921875,1.7185516357421875
1783339091974138400,8.209138427734375,-0.00579833984375,1.4642486572265625,1.6734466552734375
1783339091984111400,8.219111328125,-0.109954833984375,1.4488067626953125,1.5656585693359375
1783339091994084400,8.22908447265625,-0.1350555419921875,1.45416259765625,1.454376220703125
1783339092004057300,8.239057373046874,-0.1226806640625,1.4358062744140625,1.3226165771484375
1783339092014030300,8.2490302734375,-0.0686492919921875,1.355926513671875,1.1592559814453125
1783339092024003300,8.25900341796875,-0.0038909912109375,1.197021484375,0.975189208984375
1783339092033976300,8.268976318359375,0.0742950439453125,1.0001373291015625,0.884033203125
1783339092043949300,8.27894921875,0.1733856201171875,0.7943115234375,0.8243865966796875
1783339092053922300,8.28892236328125,0.3056488037109375,0.577545166015625,0.71820068359375
1783339092063895300,8.298895263671875,0.4264373779296875,0.39434814453125,0.5855255126953125
1783339092073868300,8.308868408203125,0.4492645263671875,0.258697509765625,0.451263427734375
1783339092083841300,8.31884130859375,0.3776397705078125,0.174285888671875,0.32427978515625
1783339092093814300,8.328814208984374,0.2366943359375,0.128326416015625,0.2303314208984375
1783339092103787300,8.338787353515626,0.0878143310546875,0.1042633056640625,0.1348876953125
1783339092113760300,8.34876025390625,-0.0482025146484375,0.1118316650390625,0.0803985595703125
1783339092123732200,8.358732177734375,-0.1221771240234375,0.1073760986328125,0.0561981201171875
1783339092133705500,8.36870556640625,-0.1070098876953125,0.07904052734375,0.029541015625
1783339092143678200,8.37867822265625,-0.0085601806640625,0.046295166015625,0.0277862548828125
1783339092153651200,8.388651123046875,0.087860107421875,0.022552490234375,0.03448486328125
1783339092163624200,8.398624267578125,0.135772705078125,-0.0159454345703125,-0.00079345703125
1783339092173597400,8.408597412109375,0.1630096435546875,-0.05908203125,-0.0313873291015625
1783339092183570400,8.4185703125,0.193023681640625,-0.0971832275390625,-0.0607147216796875
1783339092193543200,8.428543212890625,0.2096405029296875,-0.1228179931640625,-0.0852203369140625
1783339092203516200,8.43851611328125,0.2010498046875,-0.113311767578125,-0.0797271728515625
1783339092213489400,8.448489501953125,0.1820526123046875,-0.0655364990234375,-0.0352325439453125
1783339092223462400,8.45846240234375,0.1546478271484375,-0.015960693359375,-0.017364501953125
1783339092233435400,8.468435302734376,0.1190643310546875,0.0488739013671875,-0.0159149169921875
1783339092243408100,8.478408203125,0.0891876220703125,0.1227264404296875,-0.007171630859375
1783339092253381400,8.48838134765625,0.0712127685546875,0.18585205078125,0.015289306640625
1783339092263354400,8.498354248046875,0.06573486328125,0.2540740966796875,0.0605926513671875
1783339092273327400,8.508327392578124,0.0749664306640625,0.3262481689453125,0.110015869140625
1783339092283299300,8.51829931640625,0.11492919921875,0.40679931640625,0.158172607421875
1783339092293272300,8.528272216796875,0.1735382080078125,0.4955902099609375,0.194366455078125
1783339092303245300,8.538245361328125,0.2527923583984375,0.6154937744140625,0.228485107421875
1783339092313218300,8.54821826171875,0.2971954345703125,0.759490966796875,0.270904541015625
1783339092323191300,8.55819140625,0.314788818359375,0.8955535888671875,0.38348388671875
1783339092333164300,8.568164306640625,0.4590606689453125,1.01251220703125,0.6031494140625
1783339092343137300,8.57813720703125,0.7491455078125,1.1239471435546875,0.815765380859375
1783339092353110300,8.5881103515625,0.7899322509765625,1.2020263671875,1.141021728515625
1783339092363083300,8.598083251953126,0.1506195068359375,1.178436279296875,1.5541534423828125
1783339092373056500,8.608056396484375,-0.311431884765625,1.24041748046875,1.834381103515625
1783339092383029200,8.618029296875,-0.320465087890625,1.5170135498046875,2.15472412109375
1783339092393002200,8.628002197265625,-0.0659637451171875,1.8271636962890625,2.3995208740234375
1783339092402975200,8.637975341796874,0.290496826171875,1.72314453125,2.0086517333984375
1783339092412948500,8.647948486328126,0.671966552734375,1.5184326171875,1.63067626953125
1783339092422921500,8.65792138671875,0.978302001953125,1.6197052001953125,1.7400665283203125
1783339092432894200,8.667894287109375,0.928131103515625,1.772064208984375,1.7776947021484375
1783339092442867200,8.6778671875,0.6162109375,1.8020172119140625,1.5576629638671875
1783339092452839400,8.68783935546875,0.3014984130859375,1.8003082275390625,1.38031005859375
1783339092462812200,8.697812255859375,0.1627197265625,1.77972412109375,1.313385009765625
1783339092472785200,8.70778515625,0.1432647705078125,1.6539459228515625,1.214752197265625
1783339092482758400,8.71775830078125,0.156463623046875,1.5225067138671875,1.1771392822265625
1783339092492731400,8.7277314453125,0.2020263671875,1.42047119140625,1.1799163818359375
1783339092502704400,8.737704345703126,0.2231903076171875,1.3261260986328125,1.1837158203125
1783339092512677000,8.747677001953125,0.219482421875,1.212982177734375,1.154388427734375
1783339092522650400,8.757650390625,0.2156829833984375,1.073944091796875,1.0516204833984375
1783339092532623400,8.767623291015624,0.23797607421875,0.9196319580078125,0.9109649658203125
1783339092542596400,8.777596435546876,0.293975830078125,0.75592041015625,0.76983642578125
1783339092552569300,8.7875693359375,0.30242919921875,0.5860443115234375,0.651702880859375
1783339092562542000,8.7975419921875,0.27032470703125,0.4183807373046875,0.529541015625
1783339092572515300,8.807515380859375,0.25653076171875,0.256622314453125,0.4031829833984375
1783339092582488300,8.81748828125,0.2296142578125,0.1400146484375,0.3111419677734375
1783339092592461300,8.82746142578125,0.165557861328125,0.064910888671875,0.253326416015625
1783339092602434300,8.837434326171875,0.096923828125,0.0231475830078125,0.208526611328125
1783339092612407000,8.847406982421875,0.0622100830078125,-0.0030364990234375,0.1835784912109375
1783339092622379000,8.85737890625,0.050079345703125,-0.021331787109375,0.167022705078125
1783339092632352000,8.86735205078125,0.046234130859375,-0.028228759765625,0.1323394775390625
1783339092642325200,8.8773251953125,0.0502166748046875,-0.0378570556640625,0.0841522216796875
1783339092652298000,8.887298095703125,0.0818023681640625,-0.059539794921875,0.037628173828125
1783339092662271000,8.89727099609375,0.1297760009765625,-0.09197998046875,-0.0077972412109375
1783339092672244000,8.907243896484376,0.1820068359375,-0.12908935546875,-0.051025390625
1783339092682217200,8.91721728515625,0.2364501953125,-0.1652679443359375,-0.095367431640625
1783339092692190200,8.927190185546875,0.265106201171875,-0.180145263671875,-0.1338348388671875
1783339092702163000,8.937162841796875,0.268768310546875,-0.1704559326171875,-0.1533660888671875
1783339092712136000,8.947135986328124,0.241943359375,-0.1398162841796875,-0.1468353271484375
1783339092722109200,8.957109130859376,0.170562744140625,-0.071502685546875,-0.104278564453125
1783339092732082200,8.967082275390625,0.0670318603515625,0.02520751953125,-0.052825927734375
1783339092742055000,8.977054931640625,-0.038787841796875,0.1164398193359375,-0.01129150390625
1783339092752028000,8.98702783203125,-0.1177825927734375,0.1821746826171875,-0.00250244140625
1783339092762001200,8.997001220703124,-0.1630401611328125,0.2327728271484375,-0.007659912109375
1783339092771973000,9.00697314453125,-0.1666259765625,0.287322998046875,-0.0211181640625
1783339092781945900,9.01694580078125,-0.1364898681640625,0.3536224365234375,-0.0349273681640625
1783339092791919000,9.026919189453125,-0.0937042236328125,0.431396484375,-0.05438232421875
1783339092801892000,9.03689208984375,-0.0376739501953125,0.521331787109375,-0.100921630859375
1783339092811865000,9.046864990234376,0.03570556640625,0.639801025390625,-0.147674560546875
1783339092821838000,9.056838134765625,0.1443634033203125,0.8148193359375,-0.1403656005859375
1783339092831811000,9.06681103515625,0.2586669921875,1.060150146484375,-0.0573577880859375
1783339092841784000,9.0767841796875,0.3176422119140625,1.3621978759765625,0.2107391357421875
1783339092851757000,9.086757080078126,0.494781494140625,1.576812744140625,0.8023834228515625
1783339092861730000,9.09672998046875,1.1304168701171875,1.74652099609375,1.43707275390625
1783339092871703000,9.106703125,1.674896240234375,1.67413330078125,2.0498199462890625
1783339092881676000,9.116676025390625,0.782073974609375,1.280426025390625,2.1380615234375
1783339092891649000,9.12664892578125,-0.140899658203125,1.25738525390625,2.3021240234375
1783339092901622000,9.1366220703125,-0.435638427734375,1.502410888671875,2.907012939453125
1783339092911595000,9.146594970703125,0.0399322509765625,1.84326171875,3.5673370361328125
1783339092921568300,9.156568359375,0.58074951171875,1.8060455322265625,3.470245361328125
1783339092931541000,9.166541015625,0.5072479248046875,1.449951171875,2.2932281494140625
1783339092941513000,9.176512939453126,0.1846923828125,1.448577880859375,1.5693359375
1783339092951486200,9.186486328125,0.082763671875,1.680419921875,1.50909423828125
1783339092961459200,9.196459228515625,0.079071044921875,1.92578125,1.664215087890625
1783339092971432000,9.206431884765625,0.062286376953125,2.0491485595703125,1.7698516845703125
1783339092981405000,9.216405029296874,0.1625213623046875,2.0272216796875,1.71453857421875
1783339092991378200,9.226378173828126,0.254852294921875,1.9044342041015625,1.5319671630859375
1783339093001351200,9.23635107421875,0.3003692626953125,1.7010955810546875,1.2539520263671875
1783339093011324200,9.24632421875,0.3294525146484375,1.44403076171875,0.9404754638671875
1783339093021297000,9.256296875,0.349395751953125,1.157135009765625,0.6483612060546875
1783339093031270100,9.266270263671874,0.384429931640625,0.8716583251953125,0.3704071044921875
1783339093041243100,9.2762431640625,0.414794921875,0.597320556640625,0.09246826171875
1783339093051216100,9.286216064453125,0.3995208740234375,0.3690338134765625,-0.088653564453125
1783339093061188900,9.29618896484375,0.2898406982421875,0.1967926025390625,-0.0615234375
1783339093071162000,9.306162109375,0.1551971435546875,0.1114349365234375,0.09332275390625
1783339093081135000,9.316135009765626,0.0389251708984375,0.0555267333984375,0.2210845947265625
1783339093091108000,9.326108154296875,-0.1070709228515625,-0.0190277099609375,0.2537994384765625
1783339093101080000,9.336080078125,-0.2245941162109375,-0.10076904296875,0.2220611572265625
1783339093111053000,9.346052978515624,-0.2532196044921875,-0.1589202880859375,0.1832275390625
1783339093121026000,9.356026123046876,-0.2254180908203125,-0.202301025390625,0.15521240234375
1783339093130999000,9.3659990234375,-0.1475982666015625,-0.2353515625,0.113861083984375
1783339093140972000,9.375971923828125,-0.0484771728515625,-0.2567138671875,0.088348388671875
1783339093150945000,9.385945068359375,0.041534423828125,-0.258087158203125,0.06829833984375
1783339093160918000,9.39591796875,0.1367340087890625,-0.2242584228515625,0.04473876953125
1783339093170891000,9.40589111328125,0.150482177734375,-0.168853759765625,0.0736236572265625
1783339093180864000,9.415864013671875,0.1301727294921875,-0.1107940673828125,0.140106201171875
1783339093190837200,9.425837158203125,0.0594635009765625,-0.072845458984375,0.203460693359375
1783339093200810000,9.43581005859375,-0.0516510009765625,-0.0198822021484375,0.2982177734375
1783339093210783000,9.445782958984376,-0.1322174072265625,0.0381011962890625,0.345001220703125
1783339093220756000,9.455755859375,-0.1426849365234375,0.065185546875,0.282318115234375
1783339093230729200,9.465729248046875,-0.1174163818359375,0.0677642822265625,0.1466217041015625
1783339093240702200,9.4757021484375,-0.0677032470703125,0.061553955078125,-0.0353546142578125
1783339093250675000,9.485675048828124,0.012115478515625,0.0512847900390625,-0.2044830322265625
1783339093260648000,9.49564794921875,0.079864501953125,0.108856201171875,-0.301513671875
1783339093270621200,9.50562109375,0.0937042236328125,0.1814422607421875,-0.303192138671875
1783339093280594200,9.51559423828125,0.21038818359375,0.2502288818359375,-0.2641754150390625
1783339093290567200,9.525567138671875,0.557525634765625,0.377105712890625,-0.114501953125
1783339093300540000,9.535539794921876,1.0114288330078125,0.602935791015625,0.16400146484375
1783339093310512000,9.54551220703125,1.35552978515625,0.7949981689453125,0.5466156005859375
1783339093320485000,9.555485107421875,1.43194580078125,0.835601806640625,0.9589996337890625
1783339093330458000,9.5654580078125,0.97015380859375,0.7513580322265625,1.282257080078125
1783339093340430800,9.575430908203124,-0.027862548828125,0.7092742919921875,1.55303955078125
1783339093350404000,9.585404052734376,-0.767120361328125,0.73114013671875,1.6882171630859375
1783339093360377000,9.595377197265625,-0.662017822265625,0.951812744140625,1.920654296875
1783339093370350000,9.60535009765625,-0.0753173828125,1.4363555908203125,2.151947021484375
1783339093380322800,9.61532275390625,0.3856658935546875,1.6741943359375,2.260101318359375
1783339093390296000,9.625296142578126,0.7182769775390625,1.7066497802734375,2.08404541015625
1783339093400269000,9.63526904296875,1.0377044677734375,2.053253173828125,1.8514862060546875
1783339093410242000,9.645241943359375,0.96051025390625,2.2743682861328125,1.695159912109375
1783339093420215000,9.655215087890625,0.7812042236328125,2.32440185546875,1.619781494140625
1783339093430188000,9.66518798828125,0.84625244140625,2.3231048583984375,1.6035308837890625
1783339093440161000,9.6751611328125,1.0277557373046875,2.0570526123046875,1.409088134765625
1783339093450134000,9.685134033203125,0.9748687744140625,1.796966552734375,1.3232574462890625
1783339093460107000,9.69510693359375,0.8018951416015625,1.55169677734375,1.346588134765625
1783339093470079000,9.705078857421874,0.6030731201171875,1.282073974609375,1.3157958984375
1783339093480052000,9.715052001953126,0.408447265625,1.020172119140625,1.2299346923828125
1783339093490025000,9.72502490234375,0.22998046875,0.833038330078125,1.134674072265625
1783339093499998200,9.734998291015625,0.059356689453125,0.6651458740234375,0.9872894287109375
1783339093509971200,9.74497119140625,-0.08251953125,0.523223876953125,0.8927154541015625
1783339093519944000,9.75494384765625,-0.1194305419921875,0.377166748046875,0.7341766357421875
1783339093529917000,9.7649169921875,-0.109130859375,0.2431488037109375,0.63543701171875
1783339093539890200,9.77489013671875,-0.0856170654296875,0.1610107421875,0.5812530517578125
1783339093549863200,9.78486328125,-0.060943603515625,0.06036376953125,0.5172882080078125
1783339093559836200,9.794836181640624,-0.0719146728515625,-0.02423095703125,0.5644378662109375
1783339093569809000,9.804808837890626,-0.0953369140625,-0.1041412353515625,0.663665771484375
1783339093579782000,9.814781982421875,-0.057708740234375,-0.226165771484375,0.6743316650390625
1783339093589755100,9.824755126953125,0.0608978271484375,-0.328277587890625,0.6167144775390625
1783339093599728000,9.83472802734375,0.1764068603515625,-0.366729736328125,0.5169830322265625
1783339093609701000,9.844701171875,0.23468017578125,-0.34698486328125,0.412689208984375
1783339093619673900,9.854673828125,0.267730712890625,-0.325439453125,0.2903289794921875
1783339093629647000,9.864647216796875,0.27081298828125,-0.2923126220703125,0.1678619384765625
1783339093639619800,9.874619873046875,0.27484130859375,-0.237091064453125,0.053955078125
1783339093649591800,9.884591796875,0.2946319580078125,-0.1796722412109375,-0.0453948974609375
1783339093659565000,9.89456494140625,0.3101654052734375,-0.1355743408203125,-0.1496124267578125
1783339093669538000,9.9045380859375,0.2748870849609375,-0.0834197998046875,-0.2082977294921875
1783339093679510800,9.9145107421875,0.1112213134765625,0.0065460205078125,-0.1953582763671875
1783339093689483800,9.92448388671875,-0.048858642578125,0.0968170166015625,-0.140533447265625
1783339093699457000,9.93445703125,-0.17572021484375,0.173858642578125,-0.07720947265625
1783339093709430000,9.944429931640625,-0.24761962890625,0.2126312255859375,-0.0771331787109375
1783339093719403000,9.954403076171875,-0.23931884765625,0.2470550537109375,-0.0800323486328125
1783339093729375700,9.964375732421875,-0.2207794189453125,0.2784576416015625,-0.0585784912109375
1783339093739349000,9.974348876953124,-0.2044677734375,0.2790069580078125,-0.044281005859375
1783339093749322000,9.984322021484376,-0.1809539794921875,0.276153564453125,-0.023101806640625
1783339093759295000,9.994294921875,-0.1530914306640625,0.2677459716796875,0.0032958984375
1783339093769268000,10.00426806640625,-0.1165771484375,0.2550201416015625,0.0257415771484375
1783339093779241000,10.014240966796875,-0.079376220703125,0.2527313232421875,0.0852203369140625
1783339093789214000,10.0242138671875,0.002410888671875,0.2781524658203125,0.1735382080078125
1783339093799186000,10.03418603515625,0.259368896484375,0.3719024658203125,0.3057098388671875
1783339093809159200,10.0441591796875,0.86114501953125,0.57086181640625,0.5482177734375
1783339093819132000,10.0541318359375,1.5150146484375,0.8368988037109375,0.9721221923828125
1783339093829105000,10.06410498046875,1.4691619873046875,0.9793548583984375,1.427459716796875
1783339093839078000,10.074077880859376,0.763763427734375,0.9776153564453125,1.7443695068359375
1783339093849051000,10.08405078125,-0.168609619140625,0.8636016845703125,1.8393096923828125
1783339093859024000,10.09402392578125,-0.4405975341796875,0.9022979736328125,1.9437103271484375
1783339093868996900,10.103996826171874,-0.09405517578125,1.2454681396484375,2.0913543701171875
1783339093878969900,10.113969970703126,0.355987548828125,1.6243743896484375,2.06756591796875
1783339093888942800,10.12394287109375,0.8910980224609375,1.7532806396484375,1.5996551513671875
1783339093898916000,10.133916015625,1.01507568359375,1.6988525390625,1.2076416015625
1783339093908888800,10.143888916015625,0.2631072998046875,2.061126708984375,2.1388702392578125
1783339093918861800,10.15386181640625,0.1902313232421875,2.0472564697265625,2.0226898193359375
1783339093928834800,10.163834716796876,0.56427001953125,1.8672637939453125,1.6296539306640625
1783339093938808000,10.17380810546875,0.6677398681640625,1.6570892333984375,1.41961669921875
1783339093948779800,10.18377978515625,0.6397705078125,1.5161590576171875,1.5056915283203125
1783339093958752800,10.193752685546874,0.647003173828125,1.382049560546875,1.6985931396484375
1783339093968726000,10.20372607421875,0.6099090576171875,1.200958251953125,1.7519989013671875
1783339093978699000,10.213698974609375,0.4836883544921875,1.021759033203125,1.7255706787109375
1783339093988672000,10.223672119140625,0.341033935546875,0.88421630859375,1.6414947509765625
1783339093998644700,10.233644775390625,0.218292236328125,0.7839508056640625,1.4707183837890625
1783339094008618000,10.243617919921874,0.1015777587890625,0.676300048828125,1.2162017822265625
1783339094018591000,10.253591064453126,0.02740478515625,0.55841064453125,0.91864013671875
1783339094028564000,10.26356396484375,-0.0354156494140625,0.5152587890625,0.74542236328125
1783339094038537000,10.273536865234375,-0.0393829345703125,0.448333740234375,0.56060791015625
1783339094048510000,10.283510009765624,0.037750244140625,0.3825531005859375,0.472015380859375
1783339094058483000,10.29348291015625,0.1685943603515625,0.3239593505859375,0.4267578125
1783339094068456000,10.3034560546875,0.2580718994140625,0.2433929443359375,0.34918212890625
1783339094078429000,10.313428955078125,0.2673492431640625,0.166168212890625,0.299468994140625
1783339094088401000,10.32340087890625,0.2675933837890625,0.1001739501953125,0.3126373291015625
1783339094098374000,10.333373779296876,0.2366485595703125,0.0401153564453125,0.3047637939453125
1783339094108347000,10.343346923828125,0.1616058349609375,-0.01544189453125,0.2592010498046875
1783339094118319900,10.35331982421875,0.0960235595703125,-0.0552825927734375,0.196563720703125
1783339094128293000,10.363293212890625,0.0504150390625,-0.0830078125,0.15087890625
1783339094138265900,10.373265869140624,0.04248046875,-0.103729248046875,0.1241302490234375
1783339094148238800,10.38323876953125,0.0686798095703125,-0.1246337890625,0.09405517578125
1783339094158211800,10.3932119140625,0.102203369140625,-0.15765380859375,0.037933349609375
1783339094168185000,10.40318505859375,0.105224609375,-0.1898040771484375,-0.038330078125
1783339094178158000,10.413157958984375,0.0636138916015625,-0.1980743408203125,-0.100250244140625
1783339094188130800,10.423130859375,-0.0001220703125,-0.1747589111328125,-0.1219940185546875
1783339094198103800,10.433103759765626,-0.076568603515625,-0.13507080078125,-0.1217041015625
1783339094208077000,10.4430771484375,-0.147918701171875,-0.0821990966796875,-0.0986480712890625
1783339094218050000,10.453050048828125,-0.188751220703125,-0.0241851806640625,-0.0528564453125
1783339094228021800,10.463021728515624,-0.1837005615234375,0.0444488525390625,-0.007415771484375
1783339094237995000,10.4729951171875,-0.1407318115234375,0.114898681640625,0.0134124755859375
1783339094247968000,10.482968017578125,-0.0816497802734375,0.18994140625,0.0240631103515625
1783339094257941000,10.49294091796875,-0.028167724609375,0.2793121337890625,0.03668212890625
1783339094267913700,10.502913818359374,0.0238494873046875,0.381256103515625,0.0662078857421875
1783339094277887000,10.512886962890626,0.0845489501953125,0.4784393310546875,0.100189208984375
1783339094287860000,10.52285986328125,0.181427001953125,0.579345703125,0.141998291015625
1783339094297833000,10.5328330078125,0.30615234375,0.6902313232421875,0.233123779296875
1783339094307806000,10.542805908203125,0.458831787109375,0.802398681640625,0.4160003662109375
1783339094317779000,10.552779052734374,0.6745452880859375,0.9102783203125,0.695556640625
1783339094327752000,10.562751953125,0.831390380859375,0.9924774169921875,1.02252197265625
1783339094337725000,10.572724853515625,0.647064208984375,0.9258880615234375,1.319580078125
1783339094347698000,10.582697998046875,0.239013671875,0.8117828369140625,1.5430755615234375
1783339094357671000,10.5926708984375,-0.040374755859375,0.902008056640625,1.7757720947265625
1783339094367643000,10.602642822265626,-0.16314697265625,1.17327880859375,2.0655670166015625
1783339094377616000,10.612615966796875,-0.152099609375,1.5770416259765625,2.3798675537109375
1783339094387588900,10.6225888671875,0.0868682861328125,1.8127288818359375,2.32550048828125
1783339094397562000,10.63256201171875,0.471282958984375,1.77752685546875,1.964447021484375
1783339094407534800,10.642534912109374,0.697967529296875,1.67962646484375,1.6832122802734375
1783339094417507800,10.6525078125,0.7777862548828125,1.6280059814453125,1.5158843994140625
1783339094427480800,10.662480712890625,0.68145751953125,1.592437744140625,1.50274658203125
1783339094437454000,10.6724541015625,0.4769439697265625,1.551727294921875,1.594329833984375
1783339094447427000,10.682427001953124,0.3179168701171875,1.4347076416015625,1.6571044921875
1783339094457399800,10.69239990234375,0.21539306640625,1.3176727294921875,1.674713134765625
1783339094467372800,10.702372802734375,0.1746368408203125,1.23583984375,1.7125244140625
1783339094477346000,10.712345947265625,0.188812255859375,1.12841796875,1.6855926513671875
1783339094487319000,10.722319091796875,0.181427001953125,1.0301666259765625,1.6135711669921875
1783339094497292000,10.7322919921875,0.1484527587890625,0.97625732421875,1.55145263671875
1783339094507264000,10.742263916015625,0.1220703125,0.929473876953125,1.4334564208984375
1783339094517237000,10.752237060546875,0.1141815185546875,0.820343017578125,1.1871337890625
1783339094527210000,10.7622099609375,0.13037109375,0.6663360595703125,0.8909149169921875
1783339094537182700,10.7721826171875,0.1246185302734375,0.5539093017578125,0.6757659912109375
1783339094547156000,10.782156005859376,0.1340484619140625,0.4519195556640625,0.494232177734375
1783339094557129000,10.79212890625,0.15155029296875,0.3346710205078125,0.32415771484375
1783339094567102000,10.80210205078125,0.1316986083984375,0.228302001953125,0.2331085205078125
1783339094577075000,10.812074951171875,0.0816497802734375,0.14947509765625,0.221405029296875
1783339094587048000,10.8220478515625,0.0838470458984375,0.0991973876953125,0.235382080078125
1783339094597021000,10.83202099609375,0.1540374755859375,0.06884765625,0.2415924072265625
1783339094606994000,10.841993896484375,0.183074951171875,0.0283050537109375,0.2198638916015625
1783339094616967000,10.851966796875,0.1537933349609375,-0.0416259765625,0.1555328369140625
1783339094626940000,10.86193994140625,0.1142425537109375,-0.1047821044921875,0.0841827392578125
1783339094636913200,10.8719130859375,0.0664520263671875,-0.1379241943359375,0.03033447265625
1783339094646884900,10.881884765625,0.0586090087890625,-0.155975341796875,-0.0148162841796875
1783339094656857900,10.89185791015625,0.0780029296875,-0.179473876953125,-0.071746826171875
1783339094666831000,10.9018310546875,0.101226806640625,-0.2071533203125,-0.1120758056640625
1783339094676804000,10.91180419921875,0.10394287109375,-0.2236175537109375,-0.1165924072265625
1783339094686777000,10.921777099609375,0.0917510986328125,-0.22235107421875,-0.11480712890625
1783339094696749800,10.931749755859375,0.0709228515625,-0.185150146484375,-0.1044464111328125
1783339094706723000,10.94172314453125,0.0479736328125,-0.112945556640625,-0.07757568359375
1783339094716696000,10.951696044921874,0.027191162109375,-0.019439697265625,-0.0324249267578125
1783339094726669000,10.9616689453125,0.0098114013671875,0.0681304931640625,-0.00091552734375
1783339094736642000,10.97164208984375,-0.0152740478515625,0.1485137939453125,0.0068817138671875
1783339094746615000,10.981614990234375,-0.0574188232421875,0.2241973876953125,0.0072784423828125
1783339094756588000,10.991588134765625,-0.103912353515625,0.29534912109375,0.0219879150390625
1783339094766561000,11.00156103515625,-0.1323394775390625,0.36279296875,0.0642852783203125
1783339094776534000,11.011533935546876,-0.1303253173828125,0.409393310546875,0.113677978515625
1783339094786506000,11.021506103515625,-0.10858154296875,0.427825927734375,0.14422607421875
1783339094796479000,11.03147900390625,-0.049957275390625,0.46685791015625,0.2178802490234375
1783339094806452000,11.041451904296874,0.0875701904296875,0.547882080078125,0.363037109375
1783339094816425000,11.051425048828126,0.3627166748046875,0.66082763671875,0.5645294189453125
1783339094826398000,11.06139794921875,0.880584716796875,0.8569183349609375,0.902191162109375
1783339094836371000,11.071370849609375,1.13653564453125,1.04388427734375,1.41778564453125
1783339094846344000,11.081343994140624,0.6721954345703125,1.005706787109375,1.76519775390625
1783339094856317000,11.09131689453125,0.3027801513671875,0.9463348388671875,1.749603271484375
1783339094866290200,11.101290283203125,0.27508544921875,1.0684814453125,1.67822265625
1783339094876263000,11.111262939453125,0.2957305908203125,1.3672332763671875,1.8903961181640625
1783339094886236000,11.12123583984375,0.3299713134765625,1.6630401611328125,2.1839141845703125
1783339094896209000,11.131208984375,0.4523468017578125,1.8003692626953125,2.3152923583984375
1783339094906182100,11.14118212890625,0.5782318115234375,1.7681732177734375,2.3231048583984375
1783339094916155100,11.151155029296875,0.547149658203125,1.72296142578125,2.1967315673828125
1783339094926126800,11.161126953125,0.52691650390625,1.6939239501953125,1.9755859375
1783339094936100000,11.17110009765625,0.486297607421875,1.6488189697265625,1.8623504638671875
1783339094946073000,11.181072998046876,0.373992919921875,1.536529541015625,1.8038482666015625
1783339094956046000,11.191046142578125,0.261444091796875,1.391510009765625,1.736175537109375
1783339094966018800,11.201018798828125,0.16058349609375,1.259735107421875,1.6546783447265625
1783339094975992000,11.210991943359375,0.093780517578125,1.140869140625,1.578125
1783339094985965000,11.220965087890624,0.071136474609375,1.0317230224609375,1.4883880615234375
1783339094995938000,11.23093798828125,0.070068359375,0.924407958984375,1.3494415283203125
1783339095005911000,11.2409111328125,0.0827484130859375,0.8096923828125,1.2115936279296875
1783339095015884000,11.250884033203125,0.112579345703125,0.680511474609375,1.0944976806640625
1783339095025857000,11.26085693359375,0.155517578125,0.5296783447265625,0.9935455322265625
1783339095035830000,11.270830078125,0.19757080078125,0.3498687744140625,0.864349365234375
1783339095045803000,11.280802978515625,0.209320068359375,0.1873321533203125,0.699676513671875
1783339095055775000,11.29077490234375,0.23284912109375,0.0600738525390625,0.4776611328125
1783339095065748000,11.300748046875,0.23004150390625,-0.0400543212890625,0.2539520263671875
1783339095075721000,11.310720947265626,0.184234619140625,-0.1036834716796875,0.114288330078125
1783339095085694000,11.32069384765625,0.1080780029296875,-0.1149139404296875,0.05291748046875
1783339095095667200,11.330667236328125,0.0614471435546875,-0.09222412109375,0.074798583984375
1783339095105640000,11.340639892578125,0.058990478515625,-0.0745849609375,0.134429931640625
1783339095115613000,11.350613037109374,0.0620880126953125,-0.068328857421875,0.1490936279296875
1783339095125586000,11.3605859375,0.072723388671875,-0.0834503173828125,0.09857177734375
1783339095135559200,11.37055908203125,0.1108245849609375,-0.109832763671875,0.0420684814453125
1783339095145532000,11.380531982421875,0.160552978515625,-0.1407012939453125,-0.034912109375
1783339095155505000,11.3905048828125,0.1885986328125,-0.1730804443359375,-0.1132659912109375
1783339095165478000,11.400477783203126,0.20733642578125,-0.1960906982421875,-0.14886474609375
1783339095175451100,11.410451171875,0.1885833740234375,-0.2034759521484375,-0.181671142578125
1783339095185422800,11.4204228515625,0.1625518798828125,-0.189208984375,-0.2088470458984375
1783339095195395800,11.430395751953125,0.1488494873046875,-0.143096923828125,-0.229827880859375
1783339095205369000,11.440369140625,0.1319580078125,-0.0592193603515625,-0.19500732421875
1783339095215342000,11.450342041015626,0.1152496337890625,0.0308074951171875,-0.09869384765625
1783339095225315000,11.460315185546875,0.0902099609375,0.0967559814453125,-0.008941650390625
1783339095235287800,11.470287841796875,0.0559234619140625,0.1519622802734375,0.0635986328125
1783339095245261000,11.480260986328124,0.0361328125,0.2094879150390625,0.1250152587890625
1783339095255234000,11.490234130859376,0.0343017578125,0.2774658203125,0.15869140625
1783339095265207000,11.50020703125,0.0523834228515625,0.3660888671875,0.15753173828125
1783339095275180000,11.510179931640625,0.1015472412109375,0.4954071044921875,0.143951416015625
1783339095285153000,11.520153076171875,0.1884765625,0.7169342041015625,0.1504669189453125
1783339095295126000,11.5301259765625,0.3041229248046875,1.031524658203125,0.2266082763671875
1783339095305099000,11.54009912109375,0.4591217041015625,1.3680572509765625,0.447601318359375
1783339095315071200,11.5500712890625,0.6804351806640625,1.5170440673828125,1.063079833984375
1783339095325044000,11.5600439453125,0.7461395263671875,1.4738616943359375,1.8330230712890625
1783339095335017000,11.570016845703124,0.26953125,1.20184326171875,2.2460479736328125
1783339095344990000,11.579989990234376,-0.2306060791015625,0.987548828125,2.301177978515625
1783339095354963000,11.589962890625,-0.1854705810546875,0.948211669921875,2.0560150146484375
1783339095364936200,11.599936279296875,0.0875701904296875,0.9851226806640625,1.7427520751953125
1783339095374909000,11.609908935546875,0.3428802490234375,1.020233154296875,1.4862518310546875
1783339095384882000,11.6198818359375,0.605926513671875,1.1024932861328125,1.417755126953125
1783339095394855000,11.62985498046875,0.906951904296875,1.362701416015625,1.580352783203125
1783339095404828200,11.639828125,0.760101318359375,1.6681060791015625,1.5510406494140625
1783339095414801200,11.64980126953125,0.3646697998046875,1.725494384765625,1.442138671875
1783339095424774000,11.65977392578125,0.247039794921875,1.68902587890625,1.6267242431640625
1783339095434747000,11.669746826171876,0.2802734375,1.6818084716796875,1.9094085693359375
1783339095444719000,11.679718994140625,0.319305419921875,1.63079833984375,2.0333709716796875
1783339095454692000,11.689692138671875,0.32183837890625,1.523681640625,1.9917755126953125
1783339095464664800,11.699664794921874,0.25701904296875,1.37554931640625,1.8513946533203125
1783339095474638000,11.70963818359375,0.183441162109375,1.2216339111328125,1.664306640625
1783339095484611000,11.719611083984375,0.1542816162109375,1.0637359619140625,1.455322265625
1783339095494584000,11.729583984375,0.134307861328125,0.8904876708984375,1.22119140625
1783339095504556800,11.739556884765625,0.0925750732421875,0.73797607421875,1.0141143798828125
1783339095514530000,11.749530029296874,0.1066131591796875,0.5886077880859375,0.859375
1783339095524503000,11.7595029296875,0.1443634033203125,0.435546875,0.75970458984375
1783339095534476000,11.76947607421875,0.1727294921875,0.27630615234375,0.6465301513671875
1783339095544449000,11.779448974609375,0.1374053955078125,0.13128662109375,0.5372161865234375
1783339095554422000,11.789422119140625,0.0994415283203125,0.01446533203125,0.4260711669921875
1783339095564394000,11.79939404296875,0.0811309814453125,-0.063507080078125,0.2875823974609375
1783339095574367000,11.809366943359375,0.0374298095703125,-0.0933074951171875,0.22796630859375
1783339095584340000,11.819340087890625,0.0265350341796875,-0.0991973876953125,0.23638916015625
1783339095594313000,11.82931298828125,0.0609130859375,-0.086181640625,0.301727294921875
1783339095604286000,11.839285888671874,0.1262054443359375,-0.0858306884765625,0.3229217529296875
1783339095614258700,11.8492587890625,0.1548919677734375,-0.1103668212890625,0.2323455810546875
1783339095624232000,11.85923193359375,0.1542510986328125,-0.12969970703125,0.137054443359375
1783339095634205000,11.869204833984375,0.1597747802734375,-0.156982421875,-0.0025482177734375
1783339095644177700,11.879177734375,0.1905670166015625,-0.1717071533203125,-0.1218109130859375
1783339095654150700,11.889150634765626,0.2005615234375,-0.1779022216796875,-0.20867919921875
1783339095664123600,11.89912353515625,0.1930694580078125,-0.1645965576171875,-0.2659454345703125
1783339095674097000,11.909096923828125,0.18048095703125,-0.1284027099609375,-0.2679595947265625
1783339095684070000,11.91906982421875,0.157867431640625,-0.065399169921875,-0.218109130859375
1783339095694041900,11.929041748046876,0.0971832275390625,0.0078277587890625,-0.1512908935546875
1783339095704014800,11.939014892578125,0.007568359375,0.0800018310546875,-0.076995849609375
1783339095713987800,11.94898779296875,-0.0750274658203125,0.1443023681640625,-0.02099609375
1783339095723960800,11.9589609375,-0.1302642822265625,0.2032470703125,0.0100250244140625
1783339095733933600,11.96893359375,-0.151824951171875,0.2643890380859375,0.0262451171875
1783339095743906800,11.97890673828125,-0.1501922607421875,0.326019287109375,0.0180511474609375
1783339095753879800,11.9888798828125,-0.1311492919921875,0.4016571044921875,-0.0099029541015625
1783339095763852800,11.998852783203125,-0.106201171875,0.5096282958984375,-0.026824951171875
1783339095773825500,12.008825439453124,-0.0281524658203125,0.6940155029296875,0.01092529296875
1783339095783798800,12.018798828125,0.141876220703125,0.95819091796875,0.141876220703125
1783339095793771800,12.028771728515625,0.3537445068359375,1.2978363037109375,0.3229827880859375
1783339095803744800,12.038744873046875,0.577606201171875,1.58099365234375,0.6359405517578125
1783339095813717800,12.0487177734375,0.846435546875,1.620147705078125,1.2405853271484375
1783339095823689700,12.058689697265624,1.0921630859375,1.4825286865234375,1.7277069091796875
1783339095833662700,12.068662841796876,1.134033203125,1.248046875,2.0674896240234375
1783339095843635700,12.0786357421875,0.4434051513671875,0.8458404541015625,2.087890625
1783339095853609000,12.08860888671875,-0.15386962890625,0.7494964599609375,2.19049072265625
1783339095863581700,12.098581787109374,-0.2760772705078125,0.9581451416015625,2.416412353515625
1783339095873554700,12.1085546875,-0.0297088623046875,1.0395355224609375,2.297119140625
1783339095883527700,12.118527587890625,0.28631591796875,0.96539306640625,1.9940032958984375
1783339095893501000,12.1285009765625,0.5730743408203125,1.0312347412109375,2.0043487548828125
1783339095903474000,12.138473876953125,0.6213836669921875,1.29351806640625,2.141937255859375
1783339095913446700,12.14844677734375,0.2676544189453125,1.5578155517578125,1.965423583984375
1783339095923419600,12.158419677734376,0.022857666015625,1.6118927001953125,1.6480712890625
1783339095933392600,12.168392578125,-0.016632080078125,1.6448211669921875,1.55377197265625
1783339095943364900,12.17836474609375,-0.009521484375,1.6912689208984375,1.6317596435546875
1783339095953337600,12.188337646484374,0.0688323974609375,1.668975830078125,1.711639404296875
1783339095963310600,12.198310546875,0.1607818603515625,1.55780029296875,1.6585845947265625
1783339095973283800,12.208283935546875,0.19537353515625,1.3902435302734375,1.5164642333984375
1783339095983256800,12.2182568359375,0.2009429931640625,1.19622802734375,1.3250579833984375
1783339095993229800,12.228229736328124,0.170623779296875,0.99212646484375,1.1114044189453125
1783339096003202600,12.23820263671875,0.1284942626953125,0.8051910400390625,0.9310455322265625
1783339096013175800,12.24817578125,0.1286163330078125,0.61993408203125,0.736785888671875
1783339096023148800,12.258148681640625,0.1609344482421875,0.445281982421875,0.5518646240234375
1783339096033121800,12.268121826171875,0.18084716796875,0.27105712890625,0.405975341796875
1783339096043094800,12.2780947265625,0.19122314453125,0.1165618896484375,0.3055572509765625
1783339096053067800,12.28806787109375,0.202362060546875,-0.0416107177734375,0.234771728515625
1783339096063039700,12.298039794921875,0.182281494140625,-0.177032470703125,0.180450439453125
1783339096073012700,12.3080126953125,0.125885009765625,-0.264373779296875,0.1556243896484375
1783339096082986000,12.317986083984374,0.1019439697265625,-0.301361083984375,0.1482696533203125
1783339096092958700,12.327958740234376,0.0912628173828125,-0.300048828125,0.1339569091796875
1783339096102931700,12.337931640625,0.060882568359375,-0.28985595703125,0.1076202392578125
1783339096112904700,12.34790478515625,0.02337646484375,-0.273468017578125,0.0517120361328125
1783339096122878000,12.3578779296875,0.0167694091796875,-0.2509765625,-0.014312744140625
1783339096132850700,12.3678505859375,0.05670166015625,-0.2308807373046875,-0.0802764892578125
1783339096142823700,12.37782373046875,0.11322021484375,-0.2113800048828125,-0.1403350830078125
1783339096152796700,12.387796630859375,0.1511688232421875,-0.18878173828125,-0.188934326171875
1783339096162770000,12.39777001953125,0.151824951171875,-0.1539306640625,-0.2102508544921875
1783339096172743000,12.407742919921875,0.136688232421875,-0.0933380126953125,-0.1818084716796875
1783339096182714600,12.417714599609376,0.1202850341796875,-0.0140228271484375,-0.101318359375
1783339096192687900,12.42768798828125,0.08026123046875,0.0595703125,-0.03271484375
1783339096202660900,12.437660888671875,0.024322509765625,0.12774658203125,0.017333984375
1783339096212633900,12.4476337890625,-0.0245513916015625,0.203216552734375,0.0562591552734375
1783339096222606600,12.457606689453126,-0.065826416015625,0.2758331298828125,0.0724945068359375
1783339096232579600,12.46757958984375,-0.067474365234375,0.357818603515625,0.09967041015625
1783339096242552800,12.477552734375,-0.02484130859375,0.45245361328125,0.1138458251953125
1783339096252525800,12.48752587890625,0.0231781005859375,0.566558837890625,0.116424560546875
1783339096262498800,12.497498779296874,0.0712738037109375,0.744384765625,0.0953216552734375
1783339096272471600,12.507471435546876,0.1672515869140625,1.0537109375,0.12432861328125
1783339096282444800,12.51744482421875,0.2401580810546875,1.39892578125,0.11553955078125
1783339096292417800,12.527417724609375,0.2260894775390625,1.57269287109375,0.1465301513671875
1783339096302389800,12.5373896484375,0.2208709716796875,1.6307830810546875,0.5725250244140625
1783339096312362800,12.54736279296875,0.55096435546875,1.575714111328125,1.3675689697265625
1783339096322335700,12.557335693359375,1.6205902099609375,1.6953277587890625,2.1892852783203125
1783339096332308700,12.567308837890625,1.8560638427734375,1.21337890625,2.79095458984375
1783339096342281700,12.57728173828125,0.55450439453125,0.50732421875,2.044464111328125
1783339096352255000,12.5872548828125,-0.172515869140625,0.2266845703125,1.4230194091796875
1783339096362227700,12.597227783203126,-0.384765625,0.4172210693359375,1.6971435546875
1783339096372200700,12.60720068359375,-0.3669281005859375,0.6793670654296875,1.9341583251953125
1783339096382173700,12.617173583984375,-0.0742950439453125,0.879058837890625,1.9615478515625
1783339096392147000,12.62714697265625,0.4535064697265625,1.27850341796875,1.9651641845703125
1783339096402120000,12.637119873046874,0.5076751708984375,1.67938232421875,1.924774169921875
1783339096412092700,12.6470927734375,0.1428375244140625,1.7281646728515625,1.758819580078125
1783339096422065000,12.65706494140625,-0.067779541015625,1.64886474609375,1.802734375
1783339096432038000,12.667037841796875,-0.0469207763671875,1.697052001953125,2.000762939453125
1783339096442010600,12.6770107421875,0.11761474609375,1.71429443359375,2.07196044921875
1783339096451983600,12.686983642578125,0.2349700927734375,1.582733154296875,1.9115447998046875
1783339096461956900,12.696956787109375,0.212432861328125,1.3620147705078125,1.6353302001953125
1783339096471929900,12.706929931640625,0.112152099609375,1.19012451171875,1.4414825439453125
1783339096481902800,12.71690283203125,0.0051727294921875,1.0588531494140625,1.31414794921875
1783339096491875600,12.72687548828125,-0.0531005859375,0.9286041259765625,1.1660003662109375
1783339096501848600,12.7368486328125,-0.061279296875,0.78668212890625,0.9726409912109375
1783339096511821800,12.74682177734375,-0.01666259765625,0.6601409912109375,0.80816650390625
1783339096521794800,12.756794921875,0.011810302734375,0.53515625,0.649078369140625
1783339096531767800,12.766767822265624,0.0723114013671875,0.3929901123046875,0.4803314208984375
1783339096541739800,12.77673974609375,0.197967529296875,0.2599334716796875,0.4065704345703125
1783339096551712800,12.786712646484375,0.282440185546875,0.1436767578125,0.3835601806640625
1783339096561685800,12.796685791015625,0.3143768310546875,0.0580291748046875,0.3636474609375
1783339096571658800,12.80665869140625,0.320831298828125,-0.01507568359375,0.3394775390625
1783339096581631700,12.8166318359375,0.3082733154296875,-0.084625244140625,0.3000335693359375
1783339096591604700,12.826604736328125,0.31805419921875,-0.143310546875,0.2452392578125
1783339096601577700,12.83657763671875,0.30987548828125,-0.1789398193359375,0.1929779052734375
1783339096611550700,12.84655078125,0.286376953125,-0.2001800537109375,0.1458282470703125
1783339096621524700,12.856524658203124,0.236663818359375,-0.219512939453125,0.089569091796875
1783339096631498000,12.866498046875,0.1950836181640625,-0.2371673583984375,0.0168914794921875
1783339096641471000,12.876470947265625,0.1569061279296875,-0.229736328125,-0.0471954345703125
1783339096651442700,12.886442626953125,0.115081787109375,-0.194488525390625,-0.0968780517578125
1783339096661416000,12.896416015625,0.088165283203125,-0.1270751953125,-0.1118011474609375
1783339096671389000,12.906388916015626,0.034088134765625,-0.076416015625,-0.147552490234375
1783339096681362000,12.91636181640625,-0.0385284423828125,-0.0276031494140625,-0.1497955322265625
1783339096691335000,12.9263349609375,-0.0867767333984375,0.0289154052734375,-0.12872314453125
1783339096701307600,12.9363076171875,-0.1099090576171875,0.099456787109375,-0.12646484375
1783339096711281000,12.946281005859374,-0.11053466796875,0.1725311279296875,-0.1175079345703125
1783339096721254000,12.95625390625,-0.0779876708984375,0.23187255859375,-0.0919036865234375
1783339096731227000,12.966226806640625,-0.0402374267578125,0.295135498046875,-0.0700836181640625
1783339096741200000,12.976199951171875,-0.0043792724609375,0.369781494140625,-0.0548553466796875
1783339096751172900,12.9861728515625,0.0106658935546875,0.437652587890625,-0.0557708740234375
1783339096761144800,12.996144775390626,-0.000091552734375,0.5153961181640625,-0.0466156005859375
1783339096771117800,13.006117919921875,-0.0011749267578125,0.6229705810546875,0.0149383544921875
1783339096781091000,13.016091064453125,-0.012237548828125,0.7297210693359375,0.0929718017578125
1783339096791063800,13.026063720703124,-0.0125274658203125,0.7974853515625,0.2545318603515625
1783339096801036800,13.036036865234376,0.0256195068359375,0.8494415283203125,0.509552001953125
