time,seconds_elapsed,z,y,x
1783339083827510300,0.06251025390625,-0.1109456941485405,-0.4224244952201843,-0.29237115383148193
1783339083837483300,0.072483154296875,-0.05897277221083641,-0.3741392493247986,-0.2590446174144745
1783339083847456300,0.082456298828125,-0.005916478578001261,-0.2906411588191986,-0.21579967439174652
1783339083857429200,0.09242919921875,0.026456108316779137,-0.18819600343704224,-0.17785334587097168
1783339083867402200,0.10240234375,0.030594926327466965,-0.05967158451676369,-0.14925312995910645
1783339083877375500,0.11237548828125,0.011379154399037361,0.07834673672914505,-0.12956199049949646
1783339083887347200,0.12234716796875,-0.00700837466865778,0.20506207644939423,-0.12288464605808258
1783339083897320200,0.1323203125,-0.024573519825935364,0.2843656837940216,-0.12893854081630707
1783339083907293400,0.14229345703125,-0.03471031039953232,0.3126188814640045,-0.14306901395320892
1783339083917266400,0.152266357421875,-0.03689143806695938,0.24650698900222778,-0.184329092502594
1783339083927239200,0.1622392578125,-0.02491387166082859,0.11210896074771881,-0.26627829670906067
1783339083937212200,0.172212158203125,-0.0162412878125906,-0.00845447089523077,-0.390812486410141
1783339083947185200,0.18218505859375,-0.025056350976228714,-0.03104766458272934,-0.5538046360015869
1783339083957157400,0.192157470703125,-0.068356953561306,0.05055265501141548,-0.7137085199356079
1783339083967130000,0.202130126953125,-0.13092978298664093,0.2313844859600067,-0.8277426958084106
1783339083977103400,0.212103271484375,-0.16145147383213043,0.5379492044448853,-0.9390864968299866
1783339083987076400,0.222076416015625,-0.1774890273809433,0.9399962425231934,-1.0341686010360718
1783339083997049300,0.23204931640625,-0.13585424423217773,1.4006237983703613,-1.2475894689559937
1783339084007022000,0.24202197265625,0.006095709279179573,1.782833218574524,-1.5519273281097412
1783339084016994300,0.251994384765625,0.20514090359210968,2.0359396934509277,-1.8842061758041382
1783339084026967300,0.26196728515625,0.3750244677066803,2.349836826324463,-2.1635429859161377
1783339084036940300,0.271940185546875,0.47180160880088806,2.7888362407684326,-2.3539867401123047
1783339084046913000,0.2819130859375,0.48531848192214966,3.3402562141418457,-2.419135093688965
1783339084056886300,0.29188623046875,0.44756099581718445,3.7379300594329834,-2.3579018115997314
1783339084066859300,0.301859375,0.44147300720214844,3.6643223762512207,-2.1542699337005615
1783339084076831200,0.311831298828125,0.45149609446525574,3.4036638736724854,-1.8849142789840698
1783339084086804200,0.32180419921875,0.47015073895454407,2.945587158203125,-1.5298517942428589
1783339084096777200,0.331777099609375,0.48337385058403015,2.633626699447632,-1.1634162664413452
1783339084106750200,0.341750244140625,0.44411513209342957,2.4465320110321045,-0.7744424343109131
1783339084116723200,0.35172314453125,0.34503674507141113,2.3645615577697754,-0.3588218092918396
1783339084126696400,0.361696533203125,0.16157877445220947,2.2388534545898438,0.06931915134191513
1783339084136669200,0.371669189453125,-0.13366591930389404,2.022695541381836,0.5006402134895325
1783339084146641200,0.38164111328125,-0.5501353144645691,1.7429842948913574,0.9237403273582458
1783339084156614400,0.391614501953125,-0.9789311289787292,0.9918842315673828,1.2756682634353638
1783339084166587400,0.40158740234375,-1.292222261428833,-0.35747185349464417,1.5624414682388306
1783339084176560000,0.41156005859375,-1.4791377782821655,-1.9688915014266968,1.8690588474273682
1783339084186533000,0.421533203125,-1.6235071420669556,-3.556605577468872,2.2874915599823
1783339084196506400,0.43150634765625,-1.8238155841827393,-4.728038787841797,2.703965425491333
1783339084206478300,0.441478271484375,-2.229300022125244,-4.726449012756348,2.7340006828308105
1783339084216451000,0.451451171875,-2.5375843048095703,-4.798506736755371,3.158623695373535
1783339084226424300,0.46142431640625,-2.8902435302734375,-3.6889705657958984,3.2079622745513916
1783339084236397300,0.471397216796875,-2.879962682723999,-3.4667344093322754,3.1470155715942383
1783339084246370300,0.481370361328125,-2.8441033363342285,-3.788256883621216,3.0150082111358643
1783339084256343300,0.49134326171875,-2.772397756576538,-3.9368135929107666,2.908504009246826
1783339084266316300,0.50131640625,-2.3980984687805176,-3.4967007637023926,2.758528709411621
1783339084276288300,0.511288330078125,-1.7257521152496338,-2.743428945541382,2.574394941329956
1783339084286261200,0.52126123046875,-0.8682288527488708,-2.1901471614837646,2.346747636795044
1783339084296234500,0.531234375,-0.19582729041576385,-2.0306477546691895,2.0103023052215576
1783339084306207200,0.541207275390625,0.08014091104269028,-2.1772475242614746,1.521686315536499
1783339084316180200,0.55118017578125,0.25519660115242004,-2.306668758392334,0.9801396727561951
1783339084326153200,0.5611533203125,0.606859564781189,-2.5192723274230957,0.4676859676837921
1783339084336125400,0.57112548828125,1.0359832048416138,-2.681370258331299,0.0019504991360008717
1783339084346098200,0.58109814453125,1.3873753547668457,-2.8718340396881104,-0.3917666971683502
1783339084356071200,0.5910712890625,1.670445442199707,-3.313509464263916,-0.668350100517273
1783339084366044200,0.601044189453125,1.9508956670761108,-3.9030916690826416,-0.8150745630264282
1783339084376017400,0.611017333984375,2.106194019317627,-4.502760887145996,-0.8437703847885132
1783339084385990100,0.620990234375,2.124471664428711,-4.926370143890381,-0.8082147836685181
1783339084395963100,0.630963134765625,1.7966848611831665,-5.3282790184021,-0.6910748481750488
1783339084405935400,0.640935302734375,1.4231584072113037,-5.4370574951171875,-0.4934515357017517
1783339084415908400,0.650908447265625,1.1571460962295532,-4.986175537109375,-0.2781224250793457
1783339084425881000,0.660881103515625,1.094841480255127,-4.052239894866943,-0.030064158141613007
1783339084435854000,0.67085400390625,1.3032777309417725,-3.1672122478485107,0.15973453223705292
1783339084445827300,0.680827392578125,1.7139995098114014,-2.724968671798706,0.12067501991987228
1783339084455800300,0.69080029296875,2.1277527809143066,-2.7302639484405518,-0.23028433322906494
1783339084465772000,0.70077197265625,2.453789472579956,-2.941591262817383,-0.7928824424743652
1783339084475745300,0.710745361328125,2.6520590782165527,-3.149200677871704,-1.3374360799789429
1783339084485718300,0.72071826171875,2.7715983390808105,-3.3365471363067627,-1.7426437139511108
1783339084495691300,0.730691162109375,2.919344425201416,-3.5234534740448,-1.9819574356079102
1783339084505664300,0.740664306640625,3.0508201122283936,-3.696380138397217,-2.1177639961242676
1783339084515637200,0.75063720703125,3.1021485328674316,-3.8583638668060303,-2.2139360904693604
1783339084525610200,0.7606103515625,3.219237804412842,-4.087515830993652,-2.131654739379883
1783339084535582200,0.770582275390625,3.388201951980591,-4.306733131408691,-1.866808533668518
1783339084545555500,0.780555419921875,3.4521303176879883,-4.625546932220459,-1.472965121269226
1783339084555528200,0.790528076171875,3.5049049854278564,-5.046595573425293,-1.0968897342681885
1783339084565501200,0.800501220703125,3.68489408493042,-5.337083339691162,-0.8604369759559631
1783339084575474200,0.81047412109375,4.009629726409912,-5.204702854156494,-0.6939523816108704
1783339084585447400,0.820447509765625,4.366819381713867,-4.687978744506836,-0.46400442719459534
1783339084595419100,0.830419189453125,4.653634071350098,-4.108998775482178,-0.16303685307502747
1783339084605392100,0.84039208984375,4.849243640899658,-3.8373069763183594,0.16702547669410706
1783339084615365000,0.850365234375,4.91749906539917,-3.878386974334717,0.5240355134010315
1783339084625338000,0.860338134765625,4.817108631134033,-4.123809814453125,0.9704742431640625
1783339084635311000,0.87031103515625,4.593942165374756,-4.3450608253479,1.4875330924987793
1783339084645284000,0.8802841796875,4.4212188720703125,-4.331097602844238,2.0079641342163086
1783339084655257300,0.89025732421875,4.358739376068115,-4.004181861877441,2.49184250831604
1783339084665229000,0.90022900390625,4.287158489227295,-3.585996389389038,2.896947145462036
1783339084675202000,0.9102021484375,4.173457622528076,-3.155179977416992,3.173835277557373
1783339084685175300,0.92017529296875,3.9815213680267334,-2.6417267322540283,3.2810630798339844
1783339084695148300,0.930148193359375,3.765324354171753,-2.1293222904205322,3.2018682956695557
1783339084705121000,0.94012109375,3.597339153289795,-1.5644888877868652,2.945129156112671
1783339084715094000,0.950093994140625,3.5340514183044434,-1.0169754028320312,2.60510516166687
1783339084725067300,0.9600673828125,3.525068998336792,-0.6250574588775635,2.2321109771728516
1783339084735039200,0.970039306640625,3.5433056354522705,-0.4950723350048065,1.8307149410247803
1783339084745012000,0.980011962890625,3.558342933654785,-0.6341215372085571,1.4530869722366333
1783339084754985200,0.989985107421875,3.433295488357544,-0.871648371219635,1.1583960056304932
1783339084764958200,0.999958251953125,3.151637315750122,-1.1437100172042847,1.0014787912368774
1783339084774931200,1.00993115234375,2.758080005645752,-1.3527257442474365,0.890029788017273
1783339084784904200,1.019904296875,2.312804698944092,-1.2985376119613647,0.7065712809562683
1783339084794877000,1.029876953125,1.936136245727539,-0.8116468191146851,0.41680708527565
1783339084804849200,1.03984912109375,1.7267332077026367,0.025584455579519272,-0.04519810527563095
1783339084814822100,1.049822265625,1.6600772142410278,0.9491236805915833,-0.5603528022766113
1783339084824795100,1.059795166015625,1.6969749927520752,1.529248833656311,-0.9173157215118408
1783339084834768100,1.06976806640625,1.8091641664505005,1.6310588121414185,-0.8520299196243286
1783339084844741000,1.0797412109375,1.808240294456482,0.9558332562446594,-0.3870462477207184
1783339084854714000,1.089714111328125,1.5421431064605713,-0.23174454271793365,0.37850576639175415
1783339084864687000,1.09968701171875,0.9624083638191223,-1.5648531913757324,1.2600370645523071
1783339084874660400,1.109660400390625,0.23167504370212555,-2.1529366970062256,1.6181083917617798
1783339084884632000,1.119632080078125,-0.34033146500587463,-1.6769520044326782,1.0233185291290283
1783339084894605000,1.12960498046875,-0.9313239455223083,-0.7668566703796387,0.08717964589595795
1783339084904578300,1.139578369140625,-1.542840838432312,0.0628170445561409,-0.793414831161499
1783339084914551000,1.149551025390625,-1.5574512481689453,0.24945217370986938,-1.26966392993927
1783339084924524000,1.15952392578125,-1.6486886739730835,0.23636353015899658,-1.3206743001937866
1783339084934497000,1.1694970703125,-1.5121530294418335,0.02160888910293579,-1.1530179977416992
1783339084944470300,1.17947021484375,-0.7357951998710632,-0.4687435030937195,-0.702788233757019
1783339084954442000,1.18944189453125,0.0016708672046661377,-1.0937650203704834,-0.1977064162492752
1783339084964415000,1.1994150390625,0.3493412137031555,-1.6491461992263794,-0.013998639769852161
1783339084974388200,1.20938818359375,0.42172327637672424,-1.8304399251937866,-0.22619159519672394
1783339084984361200,1.219361328125,0.1417989432811737,-1.6837753057479858,-0.673210620880127
1783339084994334200,1.229334228515625,-0.31208786368370056,-1.400427222251892,-1.0676833391189575
1783339085004307000,1.239306884765625,-0.7341674566268921,-0.6690697073936462,-1.3673880100250244
1783339085014280200,1.2492802734375,-1.1471023559570312,0.9061104655265808,-1.9291318655014038
1783339085024253200,1.259253173828125,-1.7651500701904297,2.2244532108306885,-2.3808083534240723
1783339085034225200,1.26922509765625,-1.9411379098892212,2.6892659664154053,-2.130263090133667
1783339085044198100,1.2791982421875,-1.7075248956680298,2.259273052215576,-1.742412805557251
1783339085054171100,1.289171142578125,-1.2824630737304688,1.3355792760849,-1.4230947494506836
1783339085064144100,1.29914404296875,-0.9723842740058899,0.510177493095398,-1.3268563747406006
1783339085074117000,1.3091171875,-0.784981369972229,0.14707359671592712,-1.4049381017684937
1783339085084090000,1.319090087890625,-0.733505129814148,-0.024057665839791298,-1.4081522226333618
1783339085094063000,1.32906298828125,-0.8615036010742188,-0.4418295919895172,-1.2450001239776611
1783339085104035000,1.33903515625,-1.132206916809082,-1.029447317123413,-0.9091776013374329
1783339085114008000,1.349008056640625,-1.4270389080047607,-1.5811635255813599,-0.5378006100654602
1783339085123981300,1.358981201171875,-1.6267008781433105,-1.9612303972244263,-0.2817315459251404
1783339085133954000,1.3689541015625,-1.649981141090393,-1.9864119291305542,-0.20500987768173218
1783339085143927000,1.378927001953125,-1.5110573768615723,-1.7194100618362427,-0.24773842096328735
1783339085153900000,1.388900146484375,-1.2106854915618896,-1.3863370418548584,-0.12067554891109467
1783339085163873300,1.398873291015625,-0.9854308366775513,-1.2420130968093872,0.1727810949087143
1783339085173846300,1.40884619140625,-0.8708853721618652,-1.3473161458969116,0.3818104863166809
1783339085183818000,1.41881787109375,-0.9246780276298523,-1.5481586456298828,0.5340666174888611
1783339085193791200,1.428791259765625,-0.9856566786766052,-1.6996816396713257,0.712725043296814
1783339085203764200,1.43876416015625,-1.0020787715911865,-1.6264896392822266,0.7716285586357117
1783339085213737200,1.4487373046875,-1.2304039001464844,-1.408117413520813,0.7505152821540833
1783339085223710000,1.4587099609375,-1.520275354385376,-0.8218538761138916,0.7922475337982178
1783339085233683200,1.46868310546875,-1.6911648511886597,0.4080370366573334,0.8699213266372681
1783339085243656200,1.47865625,-2.047746181488037,1.0220210552215576,0.751811146736145
1783339085253629200,1.488629150390625,-2.4443490505218506,2.1241400241851807,0.7512750625610352
1783339085263601200,1.49860107421875,-2.7494373321533203,2.9202420711517334,0.7774472832679749
1783339085273574100,1.50857421875,-2.734217405319214,2.9859092235565186,0.9693924784660339
1783339085283547100,1.518547119140625,-2.2521090507507324,2.3056955337524414,1.2805283069610596
1783339085293520100,1.52852001953125,-1.492107629776001,1.0734286308288574,1.7040367126464844
1783339085303493000,1.5384931640625,-0.9442144632339478,-2.0971150398254395,2.0035393238067627
1783339085313466000,1.548466064453125,-0.5245013236999512,-4.0715789794921875,2.934370756149292
1783339085323439000,1.558439208984375,-0.2063920497894287,-5.690830230712891,3.649569511413574
1783339085333412000,1.568412109375,-0.045459359884262085,-7.480898380279541,3.371443510055542
1783339085343384000,1.578384033203125,-0.10716266930103302,-8.83179759979248,2.1985509395599365
1783339085353357000,1.588357177734375,-0.17712470889091492,-7.753773212432861,0.7442033290863037
1783339085363330000,1.598330078125,-0.35832086205482483,-4.052145481109619,-0.2817760109901428
1783339085373303300,1.60830322265625,-0.4001045227050781,-0.9175655245780945,-1.1562199592590332
1783339085383276300,1.6182763671875,-0.16184109449386597,1.2727590799331665,-1.8357120752334595
1783339085393249000,1.6282490234375,0.30898022651672363,2.6783370971679688,-2.6922547817230225
1783339085403222000,1.638221923828125,0.5700309872627258,3.427213191986084,-3.4547579288482666
1783339085413195000,1.648195068359375,0.5118939280509949,3.2904908657073975,-3.518794298171997
1783339085423168300,1.658168212890625,0.2442379742860794,2.4057507514953613,-2.779888868331909
1783339085433140000,1.668139892578125,-0.031368840485811234,0.8168980479240417,-1.8296308517456055
1783339085443113200,1.67811328125,0.1554793417453766,0.3690211772918701,-0.8182298541069031
1783339085453086200,1.688086181640625,0.5716214179992676,0.6123744249343872,-0.2341613620519638
1783339085463059200,1.69805908203125,1.239422082901001,1.1888071298599243,0.06660272926092148
1783339085473032200,1.7080322265625,2.233934164047241,1.6249618530273438,0.16268159449100494
1783339085483005000,1.7180048828125,3.3506031036376953,1.7168999910354614,0.04205344244837761
1783339085492978200,1.727978271484375,4.406430244445801,1.514374852180481,-0.15373390913009644
1783339085502951200,1.737951171875,5.370691299438477,1.0931648015975952,-0.17394064366817474
1783339085512924200,1.747924072265625,6.177377700805664,0.855739951133728,-0.13746598362922668
1783339085522896100,1.757896240234375,6.995541572570801,0.9519333243370056,-0.0834842398762703
1783339085532869000,1.767869140625,7.815025329589844,0.9238609671592712,-0.016831977292895317
1783339085542842000,1.777842041015625,8.236286163330078,0.14307565987110138,0.01324150338768959
1783339085552815000,1.787815185546875,8.508031845092773,-0.06487780064344406,0.3250449299812317
1783339085562788400,1.797788330078125,8.757526397705078,0.21907269954681396,0.9655498266220093
1783339085572761000,1.807760986328125,8.993408203125,0.5209531784057617,1.5827940702438354
1783339085582734000,1.817734130859375,9.172895431518555,0.6881200671195984,1.9902952909469604
1783339085592707000,1.82770703125,9.268693923950195,0.7605034708976746,2.2265472412109375
1783339085602680300,1.837680419921875,9.192726135253906,0.7279950380325317,2.3039631843566895
1783339085612651800,1.84765185546875,8.871064186096191,1.1009806394577026,2.1451096534729004
1783339085622624800,1.857624755859375,8.381791114807129,1.6965361833572388,1.8759112358093262
1783339085632597800,1.86759765625,7.881826400756836,1.7120383977890015,1.6760308742523193
1783339085642570800,1.87757080078125,7.367576599121094,0.5407191514968872,1.859623908996582
1783339085652543700,1.887543701171875,6.652721405029297,-0.5735311508178711,1.9765819311141968
1783339085662516700,1.897516845703125,5.74295711517334,-1.5891151428222656,1.8990623950958252
1783339085672490000,1.907489990234375,4.778282165527344,-2.401355504989624,1.6681993007659912
1783339085682462700,1.917462646484375,3.843447685241699,-2.7835474014282227,1.281711220741272
1783339085692435700,1.927435791015625,3.0226049423217773,-2.536614418029785,0.6697378754615784
1783339085702408700,1.93740869140625,2.2677342891693115,-1.9322301149368286,0.06875323504209518
1783339085712381000,1.947380859375,1.649097204208374,-1.267732858657837,-0.34032270312309265
1783339085722353700,1.957353759765625,1.1783238649368286,-0.66243577003479,-0.5317384600639343
1783339085732326700,1.96732666015625,1.0510993003845215,-0.023151125758886337,-0.5944636464118958
1783339085742300000,1.9772998046875,1.1871535778045654,0.6050342321395874,-0.6747110486030579
1783339085752273000,1.98727294921875,1.257036566734314,0.7019283175468445,-0.5938082337379456
1783339085762246000,1.997245849609375,0.8459656238555908,0.13061153888702393,-0.22755299508571625
1783339085772218600,2.007218505859375,0.3952288031578064,-0.6314229965209961,0.25357234477996826
1783339085782191900,2.01719189453125,0.2024361938238144,-1.4377455711364746,0.5982517004013062
1783339085792164900,2.027164794921875,-0.0022098910994827747,-1.9912580251693726,0.7040814757347107
1783339085802137900,2.037137939453125,-0.20572492480278015,-2.2142069339752197,0.6530968546867371
1783339085812109800,2.04710986328125,-0.3177017867565155,-2.174149990081787,0.48291125893592834
1783339085822082800,2.057082763671875,-0.3337809145450592,-1.7414913177490234,0.2148563712835312
1783339085832055800,2.067055908203125,-0.29283827543258667,-0.9549775719642639,-0.07984290271997452
1783339085842028800,2.07702880859375,-0.2629764974117279,0.059419117867946625,-0.3138852119445801
1783339085852001800,2.087001708984375,-0.2944372296333313,1.0000646114349365,-0.4563169479370117
1783339085861974800,2.096974853515625,-0.3866584897041321,1.818681001663208,-0.533178448677063
1783339085871947800,2.10694775390625,-0.46506887674331665,2.5631167888641357,-0.5402626991271973
1783339085881920800,2.116920654296875,-0.4746152460575104,2.9467217922210693,-0.4351402819156647
1783339085891893800,2.126893798828125,-0.41510292887687683,2.392270565032959,-0.0695926621556282
1783339085901867000,2.136866943359375,-0.2651190161705017,1.347434639930725,0.29565587639808655
1783339085911838700,2.146838623046875,-0.14323705434799194,0.41836610436439514,0.36265596747398376
1783339085921811700,2.156811767578125,-0.18236927688121796,-0.13714933395385742,-0.04126434773206711
1783339085931785000,2.166784912109375,-0.2335192710161209,-0.04286517575383186,-0.8803917765617371
1783339085941758000,2.176758056640625,-0.03658304363489151,0.19340834021568298,-1.484105110168457
1783339085951730700,2.186730712890625,0.19929419457912445,-0.1830425262451172,-1.133386254310608
1783339085961703700,2.19670361328125,0.5030844211578369,-0.43278124928474426,-0.6080278754234314
1783339085971677000,2.206677001953125,0.5994754433631897,-0.7474140524864197,-0.1723901480436325
1783339085981650000,2.21664990234375,0.5522543787956238,-0.9217432141304016,0.05425631254911423
1783339085991622700,2.22662255859375,0.5303038358688354,-1.068591833114624,0.11801318824291229
1783339086001595600,2.236595703125,0.5827018022537231,-1.174271583557129,0.1767292320728302
1783339086011569000,2.24656884765625,0.6634653210639954,-1.1527734994888306,0.1975833773612976
1783339086021540900,2.256540771484375,0.5560901165008545,-1.0687744617462158,0.16018594801425934
1783339086031513600,2.266513671875,0.2963874638080597,-1.0216618776321411,0.12685008347034454
1783339086041486800,2.27648681640625,0.05700176581740379,-0.9233410954475403,0.07288539409637451
1783339086051459800,2.2864599609375,-0.016981113702058792,-0.6916000247001648,0.05872003734111786
1783339086061432800,2.296432861328125,0.05462675914168358,-0.27919116616249084,0.06313103437423706
1783339086071405800,2.30640576171875,0.18922744691371918,0.23454086482524872,0.0683140754699707
1783339086081378800,2.31637890625,0.3205905258655548,0.6680678129196167,0.0762803927063942
1783339086091351800,2.326351806640625,0.3588835895061493,0.9024558067321777,0.1097179725766182
1783339086101324800,2.33632470703125,0.23365749418735504,1.0210835933685303,0.15103745460510254
1783339086111297800,2.3462978515625,0.09080154448747635,1.093048095703125,0.17347592115402222
1783339086121270800,2.356270751953125,-0.03418007493019104,1.213624119758606,0.18935367465019226
1783339086131242800,2.36624267578125,-0.10785029828548431,1.3469499349594116,0.22444961965084076
1783339086141215700,2.3762158203125,-0.15339168906211853,1.5184282064437866,0.27311089634895325
1783339086151188700,2.386188720703125,-0.19072414934635162,1.7243174314498901,0.3046342134475708
1783339086161162000,2.396161865234375,-0.23759125173091888,1.7636531591415405,0.30822575092315674
1783339086171134700,2.406134765625,-0.3478855490684509,1.5455710887908936,0.25661182403564453
1783339086181107700,2.416107666015625,-0.49366191029548645,1.1350016593933105,0.12356694787740707
1783339086191080700,2.426080810546875,-0.6318357586860657,0.6551781296730042,-0.04603966325521469
1783339086201054000,2.436053955078125,-0.7920070290565491,0.20102232694625854,-0.20043402910232544
1783339086211027000,2.44602685546875,-0.9540787935256958,-0.1748058944940567,-0.36098963022232056
1783339086220999700,2.455999755859375,-1.0834426879882812,-0.3929065465927124,-0.5149962306022644
1783339086230972700,2.46597265625,-1.1956506967544556,-0.3282838761806488,-0.6443504691123962
1783339086240945000,2.47594482421875,-1.3385734558105469,0.05676128342747688,-0.7543981671333313
1783339086250918000,2.48591796875,-1.5219107866287231,0.5633594989776611,-0.8760300278663635
1783339086260890600,2.495890625,-1.6636357307434082,0.896679162979126,-1.0656180381774902
1783339086270864000,2.50586376953125,-1.5944489240646362,0.9777880907058716,-1.3532499074935913
1783339086280836900,2.5158369140625,-1.293054461479187,0.905566394329071,-1.7460219860076904
1783339086290809900,2.525809814453125,-0.8536856174468994,0.6043878793716431,-2.1302337646484375
1783339086300782800,2.535782958984375,-0.4032987356185913,0.03544054925441742,-2.257181406021118
1783339086310755800,2.545755859375,-0.02587181143462658,-0.7089856863021851,-1.9805705547332764
1783339086320728800,2.555728759765625,0.25782594084739685,-1.3548927307128906,-1.3974075317382812
1783339086330701800,2.565701904296875,0.43659836053848267,-1.7366318702697754,-0.6362006664276123
1783339086340674800,2.5756748046875,0.4377901256084442,-1.825337529182434,0.2551462650299072
1783339086350647800,2.585647705078125,0.34612172842025757,-1.4258556365966797,1.1869479417800903
1783339086360619800,2.595619873046875,0.3541586101055145,-0.3350139558315277,2.0124568939208984
1783339086370592800,2.6055927734375,0.5315389633178711,1.0884571075439453,2.543734073638916
1783339086380565800,2.615565673828125,0.8938596248626709,2.078023672103882,2.7646944522857666
1783339086390538800,2.625538818359375,1.284462332725525,2.1905863285064697,2.664123058319092
1783339086400511700,2.63551171875,1.5317671298980713,1.6408393383026123,2.2208425998687744
1783339086410484700,2.645484619140625,1.6892502307891846,0.9719808101654053,1.614950180053711
1783339086420457700,2.655457763671875,1.7343471050262451,0.2234080582857132,1.011152982711792
1783339086430431000,2.665430908203125,1.6111475229263306,-0.5177456736564636,0.45603784918785095
1783339086440403700,2.67540380859375,1.3802028894424438,-1.1135427951812744,-0.06519018858671188
1783339086450376700,2.685376708984375,1.0914920568466187,-1.4893113374710083,-0.4700646996498108
1783339086460349700,2.695349609375,0.8196825981140137,-1.6144803762435913,-0.7241582274436951
1783339086470323000,2.705322998046875,0.6369642019271851,-1.4509202241897583,-0.8389151692390442
1783339086480294700,2.715294677734375,0.5233606696128845,-1.0719084739685059,-0.8428990244865417
1783339086490267600,2.725267578125,0.4864862859249115,-0.5830868482589722,-0.7842452526092529
1783339086500241000,2.735240966796875,0.5584861636161804,-0.02792484126985073,-0.7359400391578674
1783339086510214000,2.7452138671875,0.6630000472068787,0.5636407136917114,-0.718036949634552
1783339086520187000,2.755186767578125,0.704281747341156,1.085727334022522,-0.6961969137191772
1783339086530159600,2.76515966796875,0.6397658586502075,1.443908929824829,-0.6003865003585815
1783339086540132900,2.7751328125,0.4995192587375641,1.5357048511505127,-0.4052577614784241
1783339086550105900,2.78510595703125,0.3505079448223114,1.2948698997497559,-0.10543641448020935
1783339086560078800,2.795078857421875,0.22658281028270721,0.9068896770477295,0.2133716642856598
1783339086570051800,2.8050517578125,0.12590546905994415,0.6543959379196167,0.4377182126045227
1783339086580024800,2.81502490234375,0.08824411034584045,0.4839267134666443,0.5491243600845337
1783339086589997800,2.824997802734375,0.10773924738168716,0.2923882007598877,0.5814117193222046
1783339086599969800,2.8349697265625,0.14671620726585388,0.048819735646247864,0.5782175660133362
1783339086609942800,2.84494287109375,0.1999533325433731,-0.14436383545398712,0.5317243337631226
1783339086619915800,2.854915771484375,0.25418487191200256,-0.23131178319454193,0.4507208466529846
1783339086629888800,2.864888671875,0.24029383063316345,-0.24277402460575104,0.33240431547164917
1783339086639861500,2.874861572265625,0.145006462931633,-0.20185509324073792,0.15939365327358246
1783339086649834800,2.884834716796875,0.026280872523784637,-0.11545548588037491,-0.07462896406650543
1783339086659807700,2.894807861328125,-0.08179207146167755,-0.07160680741071701,-0.3566340208053589
1783339086669780700,2.90478076171875,-0.19322165846824646,-0.07872436940670013,-0.6183697581291199
1783339086679753700,2.914753662109375,-0.3293858766555786,-0.018606973811984062,-0.7898773550987244
1783339086689726500,2.9247265625,-0.5386919975280762,0.06779156625270844,-0.8848562836647034
1783339086699699700,2.93469970703125,-0.7864519953727722,0.16784626245498657,-0.9483636617660522
1783339086709672700,2.944672607421875,-1.0431349277496338,0.2569518983364105,-0.9251946806907654
1783339086719645700,2.954645751953125,-1.3092339038848877,0.3152809739112854,-0.8618428707122803
1783339086729617700,2.96461767578125,-1.6437046527862549,0.372242271900177,-0.7986489534378052
1783339086739590700,2.974590576171875,-1.9717780351638794,0.16606487333774567,-0.6393770575523376
1783339086749563600,2.984563720703125,-2.154825210571289,-0.2902379631996155,-0.3747589588165283
1783339086759536600,2.99453662109375,-2.182410717010498,-0.3305334448814392,-0.08578281849622726
1783339086769510000,3.004510009765625,-2.331968069076538,1.1222413778305054,-0.2908118665218353
1783339086779482600,3.014482666015625,-2.434462547302246,2.320303201675415,-1.045873999595642
1783339086789455600,3.02445556640625,-1.9591480493545532,1.2534090280532837,-1.5791869163513184
1783339086799428600,3.0344287109375,-1.134594202041626,-0.965657651424408,-1.5826793909072876
1783339086809401900,3.04440185546875,-0.46998003125190735,-1.5018633604049683,-1.3579224348068237
1783339086819374600,3.05437451171875,-0.1512339860200882,-0.9305590987205505,-0.9463558793067932
1783339086829347600,3.06434765625,0.03177044540643692,-0.50494784116745,-0.48982909321784973
1783339086839320600,3.074320556640625,0.32927510142326355,-0.2797357738018036,-0.17688822746276855
1783339086849293800,3.0842939453125,0.7971160411834717,-0.3756692409515381,0.014872423373162746
1783339086859265500,3.094265625,1.1969244480133057,-0.5935898423194885,0.18482230603694916
1783339086869238500,3.104238525390625,1.5009357929229736,-0.5763256549835205,0.47221681475639343
1783339086879211800,3.114211669921875,1.6579946279525757,-0.5210645198822021,0.766981303691864
1783339086889184800,3.124184814453125,1.6354503631591797,-0.5576856136322021,0.9819011092185974
1783339086899157800,3.13415771484375,1.5296111106872559,-0.7451907992362976,1.1163898706436157
1783339086909130500,3.144130615234375,1.407528042793274,-0.9859248399734497,1.1759339570999146
1783339086919103700,3.154103759765625,1.2790688276290894,-1.1583584547042847,1.1569969654083252
1783339086929076700,3.16407666015625,1.11733877658844,-1.2363978624343872,1.044384479522705
1783339086939049700,3.1740498046875,0.9202920794487,-1.153344750404358,0.841620147228241
1783339086949022700,3.184022705078125,0.7235022783279419,-0.8986083269119263,0.585030198097229
1783339086958995500,3.193995361328125,0.5777640342712402,-0.5761114954948425,0.2797919809818268
1783339086968968700,3.20396875,0.5027041435241699,-0.26967063546180725,-0.07579995691776276
1783339086978941700,3.213941650390625,0.48245346546173096,-0.036219522356987,-0.3934903144836426
1783339086988913700,3.22391357421875,0.42867785692214966,0.15863199532032013,-0.5525771379470825
1783339086998886700,3.23388671875,0.38968226313591003,0.3479126989841461,-0.5244619250297546
1783339087008859600,3.243859619140625,0.2985565960407257,0.5186641812324524,-0.30295586585998535
1783339087018832600,3.25383251953125,0.24079716205596924,0.6304642558097839,0.01811535470187664
1783339087028805600,3.2638056640625,0.21100623905658722,0.5776388645172119,0.3574393689632416
1783339087038779000,3.27377880859375,0.21932703256607056,0.37059882283210754,0.620305597782135
1783339087048751600,3.283751708984375,0.2157892882823944,0.09496432542800903,0.7685310244560242
1783339087058724600,3.293724609375,0.1682417392730713,-0.1380620002746582,0.7917892336845398
1783339087068697600,3.303697509765625,0.08118486404418945,-0.2693236172199249,0.6888948082923889
1783339087078670800,3.3136708984375,-0.016202937811613083,-0.2977621853351593,0.4639098644256592
1783339087088643800,3.323643798828125,-0.10615520179271698,-0.2276587188243866,0.1585579514503479
1783339087098616600,3.333616455078125,-0.1945284754037857,-0.07907111942768097,-0.16801270842552185
1783339087108589600,3.343589599609375,-0.29319992661476135,0.09247533977031708,-0.5157525539398193
1783339087118562800,3.353562744140625,-0.39757826924324036,0.1826595664024353,-0.8573729991912842
1783339087128534800,3.36353466796875,-0.5091572403907776,0.1665479689836502,-1.1332107782363892
1783339087138507500,3.373507568359375,-0.669919490814209,0.05565367639064789,-1.2922117710113525
1783339087148480800,3.383480712890625,-0.8896673321723938,-0.2134702056646347,-1.3892238140106201
1783339087158453800,3.393453857421875,-1.143634557723999,-0.67873615026474,-1.4001507759094238
1783339087168426800,3.4034267578125,-1.3812748193740845,-1.2970163822174072,-1.2844511270523071
1783339087178399500,3.4133994140625,-1.562406063079834,-1.6960996389389038,-1.0775961875915527
1783339087188372700,3.423372802734375,-1.5480457544326782,-1.5371606349945068,-0.7671485543251038
1783339087198345700,3.433345703125,-1.3558049201965332,-0.8954253196716309,-0.3745432496070862
1783339087208318700,3.443318603515625,-1.1131672859191895,0.009940515272319317,-0.1250162422657013
1783339087218291700,3.453291748046875,-1.0453168153762817,1.1475744247436523,-0.3156264126300812
1783339087228264400,3.463264404296875,-0.8998717665672302,1.311592698097229,-0.5111679434776306
1783339087238237700,3.47323779296875,-0.7166041731834412,0.6124418377876282,-0.49677062034606934
1783339087248210700,3.483210693359375,-0.6568471193313599,-0.2730744183063507,-0.345307320356369
1783339087258183700,3.49318359375,-0.5066033005714417,-0.9420572519302368,-0.03576252609491348
1783339087268155600,3.50315576171875,-0.24856027960777283,-0.9387949109077454,0.4508316218852997
1783339087278128600,3.513128662109375,0.05919567868113518,-0.49156761169433594,0.7177834510803223
1783339087288101600,3.5231015625,0.40318554639816284,-0.18577998876571655,0.7119231224060059
1783339087298074600,3.53307470703125,0.7779607176780701,-0.0347883403301239,0.4450291395187378
1783339087308048000,3.5430478515625,1.166551947593689,0.05577351525425911,0.06620138883590698
1783339087318020600,3.5530205078125,1.4557101726531982,0.020721789449453354,-0.18535786867141724
1783339087327993600,3.56299365234375,1.5516375303268433,-0.026870762929320335,-0.21951983869075775
1783339087337966600,3.572966552734375,1.470136046409607,-0.14316514134407043,-0.09493450075387955
1783339087347939800,3.58293994140625,1.2782624959945679,-0.38582199811935425,0.12692013382911682
1783339087357912800,3.592912841796875,1.0750094652175903,-0.7172145843505859,0.3766186535358429
1783339087367885600,3.602885498046875,0.9229898452758789,-1.1138463020324707,0.6014621257781982
1783339087377858600,3.612858642578125,0.8319613933563232,-1.4533932209014893,0.7997856140136719
1783339087387831800,3.622831787109375,0.7878418564796448,-1.4745765924453735,1.0447500944137573
1783339087397804800,3.6328046875,0.7924909591674805,-1.253587245941162,1.229171633720398
1783339087407777800,3.64277783203125,0.8831745386123657,-0.8489323854446411,1.3097420930862427
1783339087417749800,3.652749755859375,0.9893198609352112,-0.3143603205680847,1.3238393068313599
1783339087427722800,3.66272265625,0.9811319708824158,0.2620904743671417,1.3037148714065552
1783339087437695700,3.67269580078125,0.8613051772117615,0.8155843019485474,1.2439981698989868
1783339087447668700,3.682668701171875,0.6557086110115051,1.236647367477417,1.1268556118011475
1783339087457641700,3.692641845703125,0.4426823556423187,1.4312267303466797,1.0014609098434448
1783339087467614700,3.70261474609375,0.23440930247306824,1.4660099744796753,0.9269886016845703
1783339087477587700,3.712587646484375,0.06333982199430466,1.3994767665863037,0.8774625658988953
1783339087487560700,3.722560791015625,-0.10179613530635834,1.242775559425354,0.8075010776519775
1783339087497533400,3.732533447265625,-0.2792891561985016,1.1195743083953857,0.6943262815475464
1783339087507506700,3.742506591796875,-0.4686649441719055,1.0939706563949585,0.5205894112586975
1783339087517479700,3.752479736328125,-0.6176427006721497,1.010775089263916,0.24748995900154114
1783339087527452700,3.76245263671875,-0.6982209086418152,0.8550930619239807,-0.09413795173168182
1783339087537425700,3.77242578125,-0.7513717412948608,0.6643814444541931,-0.42840540409088135
1783339087547398700,3.782398681640625,-0.7681986689567566,0.4390687048435211,-0.721544623374939
1783339087557371600,3.79237158203125,-0.7066974639892578,0.21170052886009216,-0.9577054977416992
1783339087567343600,3.802343505859375,-0.7139626145362854,-0.023607058450579643,-1.117114543914795
1783339087577316900,3.81231689453125,-0.6856175065040588,-0.45401355624198914,-1.3251972198486328
1783339087587289600,3.82228955078125,-0.6300836801528931,-1.0113508701324463,-1.5598064661026
1783339087597262600,3.8322626953125,-0.6196216940879822,-1.5726174116134644,-1.761897087097168
1783339087607235800,3.84223583984375,-0.599300742149353,-2.042205572128296,-1.930990219116211
1783339087617208800,3.852208740234375,-0.577714204788208,-2.4218590259552,-1.974534511566162
1783339087627182000,3.86218212890625,-0.598783552646637,-2.6769027709960938,-1.7675509452819824
1783339087637154800,3.87215478515625,-0.6324586868286133,-2.6679420471191406,-1.327494502067566
1783339087647127800,3.8821279296875,-0.6488386988639832,-1.412299633026123,-0.7938108444213867
1783339087657100800,3.892100830078125,-0.7031416296958923,0.6906732320785522,-0.4262373447418213
1783339087667074000,3.902073974609375,-0.744406521320343,2.4748897552490234,-0.4614107608795166
1783339087677047000,3.912047119140625,-0.6771070957183838,2.8775482177734375,-0.44270819425582886
1783339087687019800,3.922019775390625,-0.45847755670547485,1.8820152282714844,-0.15189792215824127
1783339087696992800,3.93199267578125,-0.10872674733400345,0.3822336494922638,0.30095183849334717
1783339087706966000,3.941966064453125,0.09424154460430145,-0.21741008758544922,0.7694088220596313
1783339087716939000,3.95193896484375,-0.08067886531352997,-0.003450924064964056,1.260870099067688
1783339087726912000,3.961912109375,-0.3453230559825897,-0.04097086936235428,1.4431885480880737
1783339087736884000,3.971884033203125,-0.06179412454366684,-0.43339139223098755,1.382492184638977
1783339087746857000,3.98185693359375,0.5374985933303833,-0.8097620606422424,1.0734992027282715
1783339087756830000,3.991829833984375,0.996953547000885,-0.885404109954834,0.6105784177780151
1783339087766803000,4.001802978515625,1.215442419052124,-0.8974184393882751,0.15273362398147583
1783339087776776000,4.01177587890625,1.277519941329956,-1.0546821355819702,-0.23042628169059753
1783339087786749000,4.0217490234375,1.1945520639419556,-1.19846773147583,-0.4788544774055481
1783339087796722000,4.031721923828125,1.067628264427185,-1.3625866174697876,-0.5783283114433289
1783339087806695000,4.04169482421875,0.9719009399414062,-1.5263886451721191,-0.5869351625442505
1783339087816668200,4.051668212890625,0.9788113236427307,-1.606511116027832,-0.5294572114944458
1783339087826641000,4.061640869140625,1.0245367288589478,-1.560461401939392,-0.4323636591434479
1783339087836614000,4.07161376953125,1.085111379623413,-1.4192981719970703,-0.23771269619464874
1783339087846587000,4.0815869140625,1.1108121871948242,-1.160136342048645,0.041364219039678574
1783339087856559900,4.091559814453125,1.0915855169296265,-0.8073434233665466,0.3151254653930664
1783339087866533000,4.101533203125,1.0346838235855103,-0.4599481523036957,0.5529340505599976
1783339087876505900,4.111505859375,0.9605271220207214,-0.19126956164836884,0.7235127091407776
1783339087886478800,4.121478759765625,0.9136006236076355,0.039205990731716156,0.8078752160072327
1783339087896451800,4.131451904296875,0.888389527797699,0.30934587121009827,0.7892275452613831
1783339087906424000,4.141424072265625,0.8520576357841492,0.5458689332008362,0.7146904468536377
1783339087916396800,4.151396728515625,0.7521581649780273,0.6418460607528687,0.6681482195854187
1783339087926369800,4.161369873046875,0.581005334854126,0.6480696201324463,0.6324517726898193
1783339087936343000,4.171343017578125,0.4304240942001343,0.6466889977455139,0.5758230686187744
1783339087946316000,4.18131591796875,0.2995358407497406,0.6635676026344299,0.5018279552459717
1783339087956288800,4.191288818359375,0.15742184221744537,0.7248584032058716,0.4143926501274109
1783339087966261800,4.20126171875,0.049495648592710495,0.7756267786026001,0.28380057215690613
1783339087976235000,4.211235107421875,-0.0044072652235627174,0.7775617837905884,0.11135847866535187
1783339087986208000,4.2212080078125,-0.02936454676091671,0.7332859635353088,-0.09271901845932007
1783339087996181000,4.231180908203125,-0.07071171700954437,0.6749134659767151,-0.30031776428222656
1783339088006153700,4.24115380859375,-0.15908978879451752,0.5969281196594238,-0.498103529214859
1783339088016127000,4.251126953125,-0.29091519117355347,0.49616101384162903,-0.7073278427124023
1783339088026100000,4.261099853515625,-0.48600879311561584,0.35642895102500916,-0.910207211971283
1783339088036073000,4.271072998046875,-0.7639964818954468,0.1782597452402115,-1.1009443998336792
1783339088046046000,4.2810458984375,-1.1129837036132812,-0.007693339604884386,-1.2892719507217407
1783339088056019000,4.29101904296875,-1.4652880430221558,-0.1803780347108841,-1.4532259702682495
1783339088065992000,4.300991943359375,-1.7946875095367432,-0.3159955143928528,-1.535810947418213
1783339088075964000,4.3109638671875,-2.077545166015625,-0.38260382413864136,-1.4775131940841675
1783339088085937000,4.32093701171875,-2.2045934200286865,-0.3273352384567261,-1.2710779905319214
1783339088095910000,4.330909912109375,-2.1636250019073486,-0.06233368068933487,-0.984483540058136
1783339088105883000,4.3408828125,-2.0105209350585938,0.2806204855442047,-0.6477718353271484
1783339088115856000,4.35085595703125,-1.7249605655670166,0.44243520498275757,-0.40378767251968384
1783339088125828900,4.360828857421875,-1.3747328519821167,0.864858865737915,-0.44188979268074036
1783339088135802000,4.370802001953125,-1.0676060914993286,1.813033938407898,-0.8860645890235901
1783339088145774800,4.38077490234375,-0.6741185188293457,2.26220440864563,-1.3502037525177002
1783339088155747800,4.390747802734375,-0.09444048255681992,1.657745361328125,-1.3950817584991455
1783339088165720800,4.400720947265625,0.2746933400630951,0.4901156425476074,-0.9452791810035706
1783339088175694000,4.410694091796875,0.367983341217041,-0.3902851939201355,-0.1618056744337082
1783339088185667000,4.4206669921875,0.30799323320388794,-0.7983350157737732,0.6714790463447571
1783339088195639800,4.430639892578125,0.2868480086326599,-0.9101749658584595,1.3106886148452759
1783339088205612800,4.44061279296875,0.48864638805389404,-0.6159308552742004,1.650649070739746
1783339088215586000,4.4505859375,0.9853461384773254,0.16778980195522308,1.740609049797058
1783339088225559000,4.46055908203125,1.4830340147018433,1.027292251586914,1.7007691860198975
1783339088235532000,4.470531982421875,1.8012253046035767,1.3919492959976196,1.624135971069336
1783339088245504000,4.48050390625,1.8820372819900513,1.263327717781067,1.5827044248580933
1783339088255477000,4.49047705078125,1.7613497972488403,0.8573064208030701,1.5654945373535156
1783339088265450000,4.500449951171875,1.5891680717468262,0.3330272138118744,1.533193588256836
1783339088275422700,4.510422607421875,1.4472384452819824,-0.22809335589408875,1.4608168601989746
1783339088285396000,4.52039599609375,1.3137801885604858,-0.6923409104347229,1.3478542566299438
1783339088295369000,4.530368896484375,1.143855333328247,-0.9598839282989502,1.2287883758544922
1783339088305342000,4.540342041015625,0.9106652736663818,-1.0638686418533325,1.1013177633285522
1783339088315315000,4.55031494140625,0.6525567770004272,-0.9755294919013977,0.9156733155250549
1783339088325288000,4.560287841796875,0.46058252453804016,-0.7247947454452515,0.6699024438858032
1783339088335261000,4.570260986328125,0.3704688847064972,-0.42946773767471313,0.4104735553264618
1783339088345234000,4.58023388671875,0.3395082950592041,-0.15625059604644775,0.1601739525794983
1783339088355207000,4.59020703125,0.29012662172317505,0.047201335430145264,-0.06130516901612282
1783339088365180000,4.600179931640625,0.20746611058712006,0.20752869546413422,-0.24631363153457642
1783339088375153000,4.61015283203125,0.11417530477046967,0.35593172907829285,-0.3561069667339325
1783339088385126000,4.6201259765625,0.032180305570364,0.5124936699867249,-0.36418700218200684
1783339088395099000,4.630098876953125,-0.013651363551616669,0.6560912728309631,-0.28988587856292725
1783339088405072000,4.64007177734375,-0.024143153801560402,0.7698674201965332,-0.15503379702568054
1783339088415045000,4.650045166015625,-0.005588643718510866,0.7590482831001282,0.014766163192689419
1783339088425016800,4.660016845703125,0.005329518113285303,0.5459179282188416,0.1945929229259491
1783339088434989800,4.66998974609375,-0.0008290420519188046,0.2722504138946533,0.36429858207702637
1783339088444963000,4.679963134765625,0.02184031717479229,0.09947439283132553,0.47968751192092896
1783339088454936000,4.68993603515625,0.013797570951282978,0.05499028041958809,0.5141706466674805
1783339088464908800,4.69990869140625,-0.03500112518668175,0.10140758007764816,0.4513314962387085
1783339088474881800,4.7098818359375,-0.09972099959850311,0.23771296441555023,0.29692888259887695
1783339088484855000,4.71985498046875,-0.16983138024806976,0.42229852080345154,0.07357754558324814
1783339088494828000,4.729828125,-0.2623405456542969,0.608128011226654,-0.16096144914627075
1783339088504801000,4.739801025390625,-0.4001365005970001,0.7512287497520447,-0.38400280475616455
1783339088514773800,4.749773681640625,-0.5660538077354431,0.8134422898292542,-0.6050976514816284
1783339088524747000,4.7597470703125,-0.7705843448638916,0.7920131683349609,-0.8059204816818237
1783339088534720000,4.769719970703125,-1.0257412195205688,0.7461727261543274,-0.9556766748428345
1783339088544693000,4.77969287109375,-1.3120169639587402,0.7445982694625854,-1.0674852132797241
1783339088554666000,4.789666015625,-1.6001696586608887,0.690619707107544,-1.1109405755996704
1783339088564639000,4.799638916015625,-1.7835341691970825,0.4966462552547455,-1.00053870677948
1783339088574612000,4.809612060546875,-1.7515323162078857,0.2740541994571686,-0.6901853680610657
1783339088584585000,4.8195849609375,-1.5859284400939941,0.3129299581050873,-0.2766664922237396
1783339088594558000,4.829557861328125,-1.5890860557556152,0.9234558939933777,-0.2236163169145584
1783339088604530700,4.83953076171875,-1.6877514123916626,1.4934405088424683,-0.5273621082305908
1783339088614503200,4.849503173828125,-1.6194463968276978,1.1448756456375122,-0.6588953137397766
1783339088624476200,4.85947607421875,-1.2475708723068237,0.15635232627391815,-0.4843200743198395
1783339088634449200,4.86944921875,-0.683300793170929,-0.3548142910003662,-0.1944589614868164
1783339088644422100,4.879422119140625,-0.08987795561552048,-0.15491315722465515,0.22209005057811737
1783339088654395100,4.88939501953125,0.22791332006454468,-0.07852649688720703,0.6606229543685913
1783339088664368000,4.8993681640625,0.3758902847766876,-0.4824947416782379,0.8331366777420044
1783339088674341000,4.909341064453125,0.6671644449234009,-0.8742254972457886,0.8718960285186768
1783339088684314400,4.919314453125,1.0133498907089233,-1.1009025573730469,0.8109839558601379
1783339088694287000,4.929287109375,1.2617969512939453,-1.2796361446380615,0.6763419508934021
1783339088704260000,4.939260009765625,1.4296681880950928,-1.5306673049926758,0.5216557383537292
1783339088714233000,4.949233154296875,1.501532793045044,-1.8280854225158691,0.35049277544021606
1783339088724206300,4.959206298828125,1.4877691268920898,-2.0968692302703857,0.19385309517383575
1783339088734179000,4.969178955078125,1.4195221662521362,-2.257399082183838,0.09332755208015442
1783339088744152000,4.979152099609375,1.2880959510803223,-2.3620657920837402,0.06882380694150925
1783339088754125000,4.989125,1.1166785955429077,-2.4697988033294678,0.13254019618034363
1783339088764098000,4.99909814453125,1.0032883882522583,-2.5056395530700684,0.2194492667913437
1783339088774071300,5.0090712890625,0.9502701759338379,-2.321601390838623,0.26658695936203003
1783339088784044000,5.0190439453125,0.9451209902763367,-1.9381290674209595,0.22924171388149261
1783339088794017000,5.02901708984375,0.9614064693450928,-1.4342904090881348,0.12528096139431
1783339088803989200,5.0389892578125,0.9622991681098938,-0.9712631106376648,0.01344550121575594
1783339088813962200,5.048962158203125,0.9289451837539673,-0.6158096790313721,-0.05529681220650673
1783339088823935000,5.05893505859375,0.8440958261489868,-0.3640679717063904,-0.057917360216379166
1783339088833908000,5.068907958984375,0.7086178660392761,-0.17277443408966064,-0.006390521302819252
1783339088843881200,5.078881103515625,0.5455527901649475,0.028788238763809204,0.07367421686649323
1783339088853854200,5.088854248046875,0.38954031467437744,0.30978500843048096,0.15485429763793945
1783339088863827200,5.0988271484375,0.2668173015117645,0.6505074501037598,0.23959074914455414
1783339088873800000,5.108800048828125,0.15908658504486084,0.9256260991096497,0.30184292793273926
1783339088883773200,5.118773193359375,0.09593984484672546,0.9951537847518921,0.3047140836715698
1783339088893746200,5.12874609375,0.08926143497228622,0.8858011960983276,0.23573821783065796
1783339088903719200,5.13871923828125,0.08979273587465286,0.7510870695114136,0.13335885107517242
1783339088913692200,5.148692138671875,0.059839896857738495,0.6707687973976135,0.0422409288585186
1783339088923665200,5.1586650390625,-0.021373465657234192,0.656606912612915,-0.03563921898603439
1783339088933638100,5.16863818359375,-0.18674005568027496,0.731785237789154,-0.12012374401092529
1783339088943611100,5.178611083984375,-0.40575894713401794,0.9017303586006165,-0.23714624345302582
1783339088953584000,5.188584228515625,-0.6128266453742981,1.0927621126174927,-0.36746084690093994
1783339088963557000,5.19855712890625,-0.8141301870346069,1.1911629438400269,-0.46836453676223755
1783339088973529000,5.208529052734375,-1.0489360094070435,1.1523199081420898,-0.5675310492515564
1783339088983502000,5.218502197265625,-1.2979395389556885,1.0432744026184082,-0.7194415330886841
1783339088993475000,5.22847509765625,-1.5405042171478271,0.8975697159767151,-0.8816373348236084
1783339089003448300,5.2384482421875,-1.7286109924316406,0.6564841270446777,-1.0310193300247192
1783339089013421000,5.248421142578125,-1.8148974180221558,0.4050236642360687,-1.15603768825531
1783339089023394000,5.25839404296875,-1.7599537372589111,0.2100325971841812,-1.1998041868209839
1783339089033367000,5.268366943359375,-1.5676863193511963,0.06541629135608673,-1.0579156875610352
1783339089043340300,5.27834033203125,-1.3390389680862427,0.0514027364552021,-0.7018089890480042
1783339089053313000,5.28831298828125,-1.203704833984375,0.4864521920681,-0.3948011100292206
1783339089063286000,5.2982861328125,-1.2382769584655762,1.3329627513885498,-0.5556491017341614
1783339089073259000,5.308259033203125,-1.2086492776870728,1.9638935327529907,-1.1141706705093384
1783339089083232300,5.318232177734375,-0.8198583722114563,1.7166036367416382,-1.3257527351379395
1783339089093205200,5.328205322265625,-0.13718555867671967,0.5656530261039734,-0.8977974057197571
1783339089103178000,5.338177978515625,0.5639275312423706,-0.8141241073608398,-0.08205518871545792
1783339089113151000,5.34815087890625,1.0178498029708862,-1.7329820394515991,0.8214341998100281
1783339089123124200,5.358124267578125,1.0307540893554688,-1.765860915184021,1.6448707580566406
1783339089133097200,5.36809716796875,0.7377813458442688,-0.5726046562194824,2.0563249588012695
1783339089143070200,5.3780703125,0.6298485398292542,0.6000179052352905,1.984358310699463
1783339089153043000,5.38804296875,0.917377233505249,0.647198498249054,1.5150036811828613
1783339089163016200,5.39801611328125,1.2810169458389282,0.0312226340174675,0.837128221988678
1783339089172988200,5.40798828125,1.5046335458755493,-0.5932148694992065,0.20017969608306885
1783339089182961200,5.417961181640625,1.6464455127716064,-1.1214659214019775,-0.19228129088878632
1783339089192934100,5.42793408203125,1.6362402439117432,-1.5907337665557861,-0.3938024342060089
1783339089202907100,5.4379072265625,1.5317485332489014,-2.0119082927703857,-0.4392032027244568
1783339089212880100,5.447880126953125,1.3537273406982422,-2.3155369758605957,-0.36372148990631104
1783339089222853000,5.45785302734375,1.1331223249435425,-2.56050705909729,-0.1803780347108841
1783339089232826000,5.467826171875,0.9590908288955688,-2.6345880031585693,0.037092242389917374
1783339089242799000,5.477799072265625,0.875982940196991,-2.437312602996826,0.1954411417245865
1783339089252772000,5.487772216796875,0.8713354468345642,-1.9538403749465942,0.23324976861476898
1783339089262745000,5.4977451171875,0.9305553436279297,-1.2288466691970825,0.20221169292926788
1783339089272718000,5.507718017578125,0.9840399026870728,-0.4727497100830078,0.16767661273479462
1783339089282691300,5.51769140625,0.922454297542572,0.13482040166854858,0.21179454028606415
1783339089292664000,5.5276640625,0.7635634541511536,0.5472774505615234,0.343177855014801
1783339089302637000,5.537636962890625,0.5576425194740295,0.7973264455795288,0.5215641260147095
1783339089312610000,5.547610107421875,0.3428702652454376,0.9429646134376526,0.7123550772666931
1783339089322583300,5.557583251953125,0.16403794288635254,0.9951117038726807,0.8672733306884766
1783339089332556300,5.567556396484375,0.05059367045760155,0.9359447956085205,0.9289369583129883
1783339089342529000,5.577529052734375,-0.013188240118324757,0.7871502637863159,0.8738577365875244
1783339089352501200,5.587501220703125,-0.04327689856290817,0.6195191740989685,0.7379621863365173
1783339089362474200,5.59747412109375,-0.06265325844287872,0.4547949433326721,0.6021113991737366
1783339089372447200,5.607447265625,-0.0803811252117157,0.2888677418231964,0.476211816072464
1783339089382420000,5.617419921875,-0.11325252056121826,0.1874372661113739,0.32764843106269836
1783339089392393200,5.627393310546875,-0.16616979241371155,0.19021281599998474,0.13893471658229828
1783339089402366200,5.6373662109375,-0.2504439353942871,0.2564251124858856,-0.06853485107421875
1783339089412339200,5.647339111328125,-0.36973118782043457,0.35861489176750183,-0.2511637806892395
1783339089422312000,5.65731201171875,-0.5449000597000122,0.4677712023258209,-0.40622180700302124
1783339089432285200,5.66728515625,-0.7582911849021912,0.5270494222640991,-0.5746715664863586
1783339089442258200,5.677258056640625,-0.9953734874725342,0.5835984349250793,-0.7519544363021851
1783339089452231200,5.687231201171875,-1.2823323011398315,0.6897310018539429,-0.9154515266418457
1783339089462204200,5.6972041015625,-1.607624888420105,0.8984102010726929,-1.058828592300415
1783339089472177200,5.70717724609375,-1.9709415435791016,1.2089123725891113,-1.1649407148361206
1783339089482150100,5.717150146484375,-2.355259656906128,1.5333807468414307,-1.214687705039978
1783339089492123100,5.727123046875,-2.6629221439361572,1.6899440288543701,-1.2011085748672485
1783339089502096100,5.73709619140625,-2.7272634506225586,1.5166425704956055,-1.0691875219345093
1783339089512069000,5.747069091796875,-2.576483964920044,1.0634020566940308,-0.7002427577972412
1783339089522042000,5.7570419921875,-2.3207850456237793,1.413074016571045,-0.4206862449645996
1783339089532014000,5.76701416015625,-1.8629424571990967,1.8571414947509766,-0.6946426630020142
1783339089541987000,5.776987060546875,-1.1360381841659546,1.0991986989974976,-1.2995333671569824
1783339089551960300,5.786960205078125,-0.2615163028240204,-0.10127042979001999,-1.8992029428482056
1783339089561933000,5.79693310546875,0.6217764616012573,-1.197359561920166,-2.0721282958984375
1783339089571906000,5.806906005859375,1.4292972087860107,-1.719172477722168,-1.7453761100769043
1783339089581879000,5.816879150390625,1.8916693925857544,-1.6295994520187378,-1.069045901298523
1783339089591852300,5.826852294921875,2.0004308223724365,-1.6691585779190063,-0.32154715061187744
1783339089601825300,5.8368251953125,2.064790964126587,-1.6311241388320923,0.3468274474143982
1783339089611798500,5.846798583984375,1.88272225856781,-0.8123405575752258,0.8795505166053772
1783339089621771500,5.856771484375,1.3598694801330566,0.013563745655119419,1.3705929517745972
1783339089631744500,5.86674462890625,0.9462956786155701,0.11167513579130173,1.6706243753433228
1783339089641717800,5.8767177734375,0.9077104926109314,-0.30780524015426636,1.7201799154281616
1783339089651690800,5.886690673828125,1.018925428390503,-0.9593526721000671,1.6056711673736572
1783339089661663500,5.89666357421875,1.1067330837249756,-1.5160372257232666,1.3641177415847778
1783339089671636500,5.906636474609375,1.1516920328140259,-1.896845817565918,1.1046797037124634
1783339089681609700,5.916609619140625,1.1124883890151978,-2.2098143100738525,0.9030720591545105
1783339089691582700,5.926582763671875,1.074506163597107,-2.5016911029815674,0.7232404947280884
1783339089701555700,5.9365556640625,1.0493991374969482,-2.6373367309570312,0.5382331013679504
1783339089711527700,5.946527587890625,1.037456750869751,-2.464372396469116,0.3266207277774811
1783339089721500700,5.956500732421875,1.0574301481246948,-2.1063737869262695,0.07049813121557236
1783339089731473700,5.9664736328125,1.0974318981170654,-1.7580556869506836,-0.215053990483284
1783339089741446700,5.97644677734375,1.0969775915145874,-1.380996823310852,-0.40927860140800476
1783339089751419600,5.986419677734375,1.0475200414657593,-1.0256555080413818,-0.4557105302810669
1783339089761392600,5.996392578125,0.9311753511428833,-0.7851473093032837,-0.39996230602264404
1783339089771365600,6.00636572265625,0.7779173254966736,-0.6103246212005615,-0.2924228012561798
1783339089781338600,6.016338623046875,0.6011010408401489,-0.4114951491355896,-0.13608166575431824
1783339089791311600,6.0263115234375,0.4288959503173828,-0.15263988077640533,0.0687447115778923
1783339089801284600,6.03628466796875,0.2737921178340912,0.14661288261413574,0.2804955840110779
1783339089811257600,6.046257568359375,0.14924141764640808,0.4149375259876251,0.43702125549316406
1783339089821230600,6.056230712890625,0.05066317692399025,0.6694361567497253,0.502930223941803
1783339089831203600,6.06620361328125,-0.03085991181433201,0.9342259764671326,0.5060778260231018
1783339089841176800,6.0761767578125,-0.1027332991361618,1.2392793893814087,0.4631447494029999
1783339089851149600,6.086149658203125,-0.12496430426836014,1.579761028289795,0.3595581650733948
1783339089861122600,6.09612255859375,-0.10785988718271255,1.8864216804504395,0.17035256326198578
1783339089871095600,6.106095458984375,-0.17849384248256683,1.9844225645065308,-0.08366959542036057
1783339089881068800,6.11606884765625,-0.2891330122947693,1.804868221282959,-0.33246156573295593
1783339089891040500,6.12604052734375,-0.40959417819976807,1.4517428874969482,-0.521525502204895
1783339089901013500,6.136013427734375,-0.5468886494636536,0.9825565218925476,-0.6898910999298096
1783339089910986800,6.14598681640625,-0.742172360420227,0.5829238891601562,-0.8828001022338867
1783339089920959700,6.155959716796875,-0.97647625207901,0.41838791966438293,-1.0781514644622803
1783339089930932500,6.165932373046875,-1.1996169090270996,0.38590002059936523,-1.2194366455078125
1783339089940905500,6.175905517578125,-1.3886421918869019,0.4050332307815552,-1.2694265842437744
1783339089950878700,6.185878662109375,-1.5068873167037964,0.48293736577033997,-1.2454477548599243
1783339089960851700,6.195851806640625,-1.5303356647491455,0.5552469491958618,-1.129858374595642
1783339089970824700,6.20582470703125,-1.439272165298462,0.5353677868843079,-0.8507393598556519
1783339089980797400,6.21579736328125,-1.1825274229049683,0.42672282457351685,-0.5767738223075867
1783339089990770700,6.225770751953125,-0.8599650859832764,0.345526784658432,-0.5626835823059082
1783339090000743700,6.23574365234375,-0.6845570206642151,0.5895484685897827,-0.8534621596336365
1783339090010716700,6.245716552734375,-0.5894688367843628,1.1195389032363892,-1.166480541229248
1783339090020689700,6.255689697265625,-0.3785667419433594,1.6486564874649048,-1.2015599012374878
1783339090030662700,6.26566259765625,0.020893564447760582,1.6278572082519531,-0.7312148213386536
1783339090040635600,6.2756357421875,0.39616864919662476,0.6545594334602356,0.1621745228767395
1783339090050608600,6.285608642578125,0.44538092613220215,-0.47779107093811035,1.0965496301651
1783339090060581600,6.29558154296875,0.08847367018461227,-0.5602452158927917,1.4780844449996948
1783339090070553600,6.3055537109375,-0.3366357982158661,0.006481068674474955,1.1272289752960205
1783339090080526600,6.315526611328125,-0.2694048285484314,-0.13355380296707153,0.5183243751525879
1783339090090499600,6.32549951171875,0.18857257068157196,-0.7068575620651245,0.024116521701216698
1783339090100472600,6.33547265625,0.7134142518043518,-1.2072505950927734,-0.18728654086589813
1783339090110445800,6.34544580078125,1.093414545059204,-1.5435245037078857,-0.11597613990306854
1783339090120418600,6.35541845703125,1.130015254020691,-1.7793670892715454,0.04231363534927368
1783339090130391600,6.3653916015625,0.9053986072540283,-1.913277506828308,0.16555674374103546
1783339090140364500,6.375364501953125,0.5846021771430969,-1.974948525428772,0.2481299191713333
1783339090150337800,6.385337890625,0.3105117976665497,-2.145712375640869,0.3457866907119751
1783339090160310800,6.395310791015625,0.29664871096611023,-2.3647170066833496,0.4602877199649811
1783339090170283500,6.405283447265625,0.4263302683830261,-2.3611629009246826,0.48804184794425964
1783339090180256500,6.415256591796875,0.6111030578613281,-2.023798942565918,0.40235435962677
1783339090190229800,6.425229736328125,0.7777732610702515,-1.5760518312454224,0.23166625201702118
1783339090200202800,6.43520263671875,0.8565021753311157,-1.1922892332077026,0.05795757472515106
1783339090210175700,6.44517578125,0.8565282821655273,-0.8743003606796265,-0.007721569389104843
1783339090220148500,6.4551484375,0.8164058923721313,-0.688605010509491,0.050391267985105515
1783339090230121700,6.465121826171875,0.7371363639831543,-0.558359682559967,0.1871507167816162
1783339090240093700,6.47509375,0.6273123621940613,-0.465339720249176,0.34107503294944763
1783339090250066400,6.48506640625,0.5093157291412354,-0.3995998501777649,0.4671786427497864
1783339090260039700,6.495039794921875,0.39500537514686584,-0.367310106754303,0.5374256372451782
1783339090270012700,6.5050126953125,0.28700512647628784,-0.33958953619003296,0.5494849681854248
1783339090279985700,6.514985595703125,0.19554740190505981,-0.2694743573665619,0.5204386711120605
1783339090289958700,6.524958740234375,0.13260038197040558,-0.13896454870700836,0.4799647331237793
1783339090299931600,6.534931640625,0.09728127717971802,0.016451943665742874,0.445654958486557
1783339090309904600,6.544904541015625,0.09104735404253006,0.16902577877044678,0.40996861457824707
1783339090319877600,6.554877685546875,0.10701806098222733,0.3180038034915924,0.34724530577659607
1783339090329850600,6.5648505859375,0.11884515732526779,0.459620863199234,0.22965343296527863
1783339090339823600,6.57482373046875,0.07185661047697067,0.5720627307891846,0.07475652545690536
1783339090349796600,6.584796630859375,-0.0030162963084876537,0.6582545638084412,-0.10156497359275818
1783339090359769600,6.59476953125,-0.08194520324468613,0.7230644822120667,-0.28178533911705017
1783339090369742600,6.60474267578125,-0.14532311260700226,0.7374346256256104,-0.44360780715942383
1783339090379715600,6.614715576171875,-0.1836574524641037,0.6936753988265991,-0.5757895112037659
1783339090389688800,6.624688720703125,-0.1931111365556717,0.6080644130706787,-0.6734721660614014
1783339090399661600,6.63466162109375,-0.23161324858665466,0.514498233795166,-0.7430789470672607
1783339090409633500,6.644633544921875,-0.29704180359840393,0.4463058412075043,-0.7765505909919739
1783339090419606800,6.654606689453125,-0.3961012661457062,0.4288688004016876,-0.7649748921394348
1783339090429579800,6.664579833984375,-0.5266081690788269,0.4989165961742401,-0.7395741939544678
1783339090439552500,6.674552490234375,-0.7223528623580933,0.7788366675376892,-0.7477828860282898
1783339090449525500,6.684525390625,-1.0138074159622192,1.4532604217529297,-0.8256017565727234
1783339090459498800,6.694498779296875,-1.435699701309204,2.7444679737091064,-0.8810895085334778
1783339090469471700,6.7044716796875,-1.9486362934112549,3.133641481399536,-0.45244550704956055
1783339090479444700,6.71444482421875,-2.314613103866577,2.6967930793762207,0.08469624817371368
1783339090489417500,6.72441748046875,-2.2485151290893555,2.2506651878356934,0.5731362104415894
1783339090499390700,6.734390625,-1.713060736656189,2.157341718673706,1.039608120918274
1783339090509363700,6.74436376953125,-0.7709819078445435,1.8650550842285156,1.1058933734893799
1783339090519336700,6.754336669921875,0.18600742518901825,1.3702685832977295,0.5159446001052856
1783339090529309700,6.764309814453125,0.689344584941864,0.853336751461029,-0.44646430015563965
1783339090539282700,6.77428271484375,0.8001038432121277,0.053212087601423264,-0.8698403239250183
1783339090549255700,6.784255615234375,1.0628981590270996,-0.7028990387916565,-0.6984131932258606
1783339090559228700,6.794228759765625,1.3829350471496582,-0.7365163564682007,-0.4002411365509033
1783339090569201700,6.80420166015625,1.6643906831741333,-0.7588757276535034,-0.07944688946008682
1783339090579174400,6.81417431640625,1.8884302377700806,-1.0578906536102295,0.24281983077526093
1783339090589146600,6.824146728515625,1.9451805353164673,-1.3566584587097168,0.49434688687324524
1783339090599119600,6.83411962890625,1.816906213760376,-1.4600250720977783,0.7115681171417236
1783339090609092600,6.844092529296875,1.5728764533996582,-1.4948663711547852,0.9562790989875793
1783339090619065300,6.8540654296875,1.2488462924957275,-1.5894427299499512,1.2011409997940063
1783339090629038300,6.864038330078125,0.8750824928283691,-1.698686122894287,1.39802086353302
1783339090639011300,6.87401123046875,0.5900840759277344,-1.7743587493896484,1.468179702758789
1783339090648984300,6.883984375,0.47474122047424316,-1.7209959030151367,1.376665472984314
1783339090658957300,6.893957275390625,0.40401217341423035,-1.4494853019714355,1.1233775615692139
1783339090668930300,6.903930419921875,0.3252933919429779,-0.9834212064743042,0.7747151255607605
1783339090678903300,6.9139033203125,0.2933969795703888,-0.5814202427864075,0.3653830289840698
1783339090688876300,6.923876220703125,0.2837582230567932,-0.45398852229118347,-0.07797416299581528
1783339090698849300,6.933849365234375,0.24995577335357666,-0.5781317949295044,-0.46740928292274475
1783339090708822300,6.943822265625,0.16592451930046082,-0.8059263229370117,-0.774442195892334
1783339090718795300,6.953795166015625,-0.01107475534081459,-0.8771403431892395,-0.9271049499511719
1783339090728768300,6.963768310546875,-0.1722753643989563,-0.7432877421379089,-0.8769326210021973
1783339090738741500,6.973741455078125,-0.3039175570011139,-0.45331767201423645,-0.6574583053588867
1783339090748714200,6.98371435546875,-0.35420069098472595,-0.1329822838306427,-0.3383474349975586
1783339090758686200,6.993686279296875,-0.27448588609695435,0.07979229837656021,-0.0006508765509352088
1783339090768659500,7.003659423828125,-0.12805117666721344,0.10487288236618042,0.28927335143089294
1783339090778632400,7.013632568359375,0.0029878003988415003,-0.0315677784383297,0.4947548806667328
1783339090788605200,7.023605224609375,0.0768556296825409,-0.19975651800632477,0.6017364263534546
1783339090798578200,7.033578125,0.11197473853826523,-0.26062893867492676,0.6100931763648987
1783339090808551400,7.043551513671875,0.1345314383506775,-0.18695417046546936,0.5308670997619629
1783339090818524400,7.0535244140625,0.14533935487270355,0.011832158081233501,0.3698060214519501
1783339090828497400,7.063497314453125,0.1397658884525299,0.26960909366607666,0.17786720395088196
1783339090838470100,7.07347021484375,0.06723389774560928,0.5063705444335938,-0.01823359914124012
1783339090848443400,7.083443359375,-0.06493692100048065,0.6632072925567627,-0.19886089861392975
1783339090858416400,7.09341650390625,-0.23172084987163544,0.7337077856063843,-0.3619305193424225
1783339090868389400,7.103389404296875,-0.41230127215385437,0.800446093082428,-0.5182498097419739
1783339090878362400,7.1133623046875,-0.5937975645065308,1.036621332168579,-0.6694076657295227
1783339090888335000,7.123335205078125,-0.7662833333015442,1.44614577293396,-0.8444966077804565
1783339090898308400,7.133308349609375,-0.9416301250457764,1.9072617292404175,-1.0005791187286377
1783339090908281300,7.14328125,-1.1420934200286865,2.2348456382751465,-1.034532070159912
1783339090918253000,7.153253173828125,-1.3442633152008057,2.270591974258423,-0.8672999739646912
1783339090928226300,7.163226318359375,-1.4513682126998901,1.9441879987716675,-0.5439541339874268
1783339090938199300,7.17319921875,-1.4896931648254395,1.7888705730438232,-0.14030811190605164
1783339090948172300,7.18317236328125,-1.4977703094482422,2.101508855819702,0.24060408771038055
1783339090958145300,7.193145263671875,-1.4098308086395264,2.1939237117767334,0.44464111328125
1783339090968118300,7.2031181640625,-1.093580722808838,1.4879683256149292,0.3894108831882477
1783339090978091300,7.21309130859375,-0.5613815784454346,0.6383445262908936,0.12837208807468414
1783339090988064300,7.223064208984375,-0.06932368129491806,0.45367908477783203,-0.2503608465194702
1783339090998037200,7.233037353515625,0.2370160073041916,0.6118998527526855,-0.5193046927452087
1783339091008010500,7.243010498046875,0.3848496675491333,0.15233734250068665,-0.5904334783554077
1783339091017983200,7.252983154296875,0.5868613719940186,-0.4805101454257965,-0.45466098189353943
1783339091027956200,7.262956298828125,0.6235008835792542,-0.7276200652122498,-0.1603238880634308
1783339091037929200,7.27292919921875,0.5536940693855286,-0.7544857859611511,0.18777282536029816
1783339091047902500,7.28290234375,0.6344131827354431,-0.7673683166503906,0.44927021861076355
1783339091057875500,7.29287548828125,0.8447808027267456,-0.90535968542099,0.6079530715942383
1783339091067848200,7.30284814453125,1.0476031303405762,-1.1127206087112427,0.6573456525802612
1783339091077821200,7.3128212890625,1.20167076587677,-1.228816032409668,0.6083661317825317
1783339091087794200,7.322794189453125,1.249725103378296,-1.2383760213851929,0.48139700293540955
1783339091097766400,7.332766357421875,1.1619001626968384,-1.3116273880004883,0.3615824282169342
1783339091107739100,7.3427392578125,0.9499098658561707,-1.5378737449645996,0.273727148771286
1783339091117712400,7.35271240234375,0.6341063976287842,-1.7983096837997437,0.15116581320762634
1783339091127685400,7.362685302734375,0.3918575346469879,-1.9793462753295898,-0.03808746486902237
1783339091137658400,7.372658447265625,0.3817383050918579,-2.030977964401245,-0.2775266766548157
1783339091147631400,7.38263134765625,0.5296856760978699,-1.895799160003662,-0.5544735789299011
1783339091157604000,7.39260400390625,0.7114214301109314,-1.508542537689209,-0.7659674882888794
1783339091167577300,7.402577392578125,0.844832718372345,-1.023797631263733,-0.8144415020942688
1783339091177550300,7.41255029296875,0.8766279220581055,-0.609096348285675,-0.7044976949691772
1783339091187523300,7.4225234375,0.8182088136672974,-0.28827598690986633,-0.4689618945121765
1783339091197496300,7.432496337890625,0.6882274150848389,-0.03315076231956482,-0.17593081295490265
1783339091207469300,7.44246923828125,0.5316827893257141,0.21085897088050842,0.11528797447681427
1783339091217442300,7.4524423828125,0.36216914653778076,0.4755268394947052,0.4032561182975769
1783339091227415300,7.462415283203125,0.20374007523059845,0.6707450747489929,0.6633694767951965
1783339091237388300,7.47238818359375,0.049797650426626205,0.7186223268508911,0.8585551977157593
1783339091247361300,7.482361328125,-0.09255123883485794,0.639363706111908,0.9531139135360718
1783339091257334300,7.492334228515625,-0.20655503869056702,0.510997474193573,0.9337466359138489
1783339091267306200,7.50230615234375,-0.30356281995773315,0.4675096571445465,0.805376410484314
1783339091277279500,7.512279541015625,-0.4188947379589081,0.5926889181137085,0.5589897632598877
1783339091287252200,7.522252197265625,-0.585344135761261,0.809941291809082,0.20623572170734406
1783339091297225200,7.53222509765625,-0.7793208360671997,1.0569796562194824,-0.20689299702644348
1783339091307198200,7.5421982421875,-0.9481021165847778,1.3365966081619263,-0.6093437671661377
1783339091317171500,7.55217138671875,-1.0740832090377808,1.5558786392211914,-0.9574029445648193
1783339091327144400,7.56214453125,-1.1777294874191284,1.6295139789581299,-1.2215112447738647
1783339091337117200,7.5721171875,-1.2835583686828613,1.5627658367156982,-1.3817856311798096
1783339091347090200,7.582090087890625,-1.3667558431625366,1.4311162233352661,-1.4314371347427368
1783339091357063200,7.592063232421875,-1.3933615684509277,1.3189866542816162,-1.3899351358413696
1783339091367036400,7.602036376953125,-1.3767874240875244,1.3069878816604614,-1.2868647575378418
1783339091377009400,7.612009521484375,-1.3150790929794312,1.3820098638534546,-1.1947715282440186
1783339091386982100,7.621982177734375,-1.242041826248169,1.237470269203186,-1.106405258178711
1783339091396955100,7.631955078125,-1.151028037071228,0.6959356665611267,-1.0403393507003784
1783339091406928400,7.641928466796875,-1.0455656051635742,0.2064325362443924,-1.1550606489181519
1783339091416901400,7.6519013671875,-0.8340980410575867,0.15003317594528198,-1.4589169025421143
1783339091426874400,7.661874267578125,-0.41230499744415283,0.24036094546318054,-1.6812118291854858
1783339091436846300,7.671846435546875,0.22849015891551971,0.35518258810043335,-1.5753720998764038
1783339091446819300,7.6818193359375,0.9516587853431702,-0.03693697974085808,-0.938896656036377
1783339091456792300,7.691792236328125,1.262416124343872,-0.8560531735420227,0.04182334616780281
1783339091466765300,7.701765380859375,1.1592057943344116,-0.9587233662605286,0.7544136047363281
1783339091476738300,7.71173828125,0.9590354561805725,-0.05760443955659866,1.0020960569381714
1783339091486711300,7.721711181640625,0.8036730289459229,0.3738636076450348,0.9816784262657166
1783339091496684300,7.731684326171875,0.8293349742889404,-0.05242539197206497,0.9298794269561768
1783339091506657300,7.7416572265625,1.0257524251937866,-0.7861427664756775,0.8883810043334961
1783339091516630500,7.751630615234375,1.2200130224227905,-1.4734623432159424,0.8532301783561707
1783339091526603300,7.761603271484375,1.2281686067581177,-1.9956109523773193,0.7749031782150269
1783339091536576300,7.771576171875,1.0933974981307983,-2.3597283363342285,0.7077955007553101
1783339091546549200,7.78154931640625,0.9277166724205017,-2.467881917953491,0.6887504458427429
1783339091556522500,7.7915224609375,0.7919641733169556,-2.2288851737976074,0.7249670624732971
1783339091566495500,7.80149560546875,0.6385160088539124,-1.8323928117752075,0.8039867281913757
1783339091576468200,7.81146826171875,0.5633872151374817,-1.5826822519302368,0.858802855014801
1783339091586441200,7.821441162109375,0.6158884763717651,-1.5300105810165405,0.8385407328605652
1783339091596414200,7.831414306640625,0.7036370038986206,-1.5301958322525024,0.7640318870544434
1783339091606387500,7.841387451171875,0.7733369469642639,-1.5273284912109375,0.6498674750328064
1783339091616359200,7.851359130859375,0.7999305129051208,-1.5102455615997314,0.4659791588783264
1783339091626332200,7.861332275390625,0.7414916753768921,-1.4226568937301636,0.23564660549163818
1783339091636305400,7.871305419921875,0.5794695019721985,-1.210263729095459,0.041375935077667236
1783339091646278400,7.8812783203125,0.36790531873703003,-0.8808211088180542,-0.07996540516614914
1783339091656251100,7.891251220703125,0.1913371980190277,-0.5015898942947388,-0.10269469022750854
1783339091666224000,7.90122412109375,0.08176703751087189,-0.10185419023036957,-0.020131899043917656
1783339091676197400,7.911197265625,0.02551894262433052,0.26805436611175537,0.14391456544399261
1783339091686170400,7.92117041015625,-0.015781359747052193,0.5788508653640747,0.33439716696739197
1783339091696143400,7.931143310546875,-0.04764421656727791,0.7664196491241455,0.4698535203933716
1783339091706116000,7.9411162109375,-0.06202901527285576,0.875981867313385,0.5135959386825562
1783339091716089300,7.95108935546875,-0.08688536286354065,1.0380293130874634,0.4719478189945221
1783339091726062300,7.961062255859375,-0.09205961972475052,1.213934063911438,0.34197118878364563
1783339091736035300,7.971035400390625,-0.04354720935225487,1.2854021787643433,0.1546446979045868
1783339091746008300,7.98100830078125,0.026338929310441017,1.1516733169555664,-0.04019269347190857
1783339091755981300,7.990981201171875,0.0635688528418541,0.8710448741912842,-0.21167096495628357
1783339091765954300,8.000954345703125,0.03430896997451782,0.5766143202781677,-0.3469635546207428
1783339091775927300,8.01092724609375,-0.0457826666533947,0.3277411162853241,-0.4644555449485779
1783339091785899500,8.0208994140625,-0.16134308278560638,0.1358417272567749,-0.6014254093170166
1783339091795872300,8.030872314453125,-0.3173060417175293,0.12103880941867828,-0.7480753064155579
1783339091805845200,8.04084521484375,-0.49946388602256775,0.3573211133480072,-0.8912750482559204
1783339091815818200,8.050818359375,-0.6984890699386597,0.7511482834815979,-1.0229740142822266
1783339091825791200,8.060791259765624,-0.9481540322303772,1.1791564226150513,-1.1501069068908691
1783339091835764500,8.070764404296876,-1.2653781175613403,1.4793225526809692,-1.2106655836105347
1783339091845737200,8.0807373046875,-1.5191121101379395,1.4195144176483154,-1.135852575302124
1783339091855710200,8.090710205078125,-1.6377167701721191,1.0107673406600952,-0.8384288549423218
1783339091865683200,8.10068310546875,-1.662762999534607,0.6247392296791077,-0.3555043041706085
1783339091875656400,8.110656494140626,-1.4558297395706177,0.947044849395752,0.10241079330444336
1783339091885629400,8.12062939453125,-0.9203658103942871,1.5606420040130615,0.41514021158218384
1783339091895602200,8.130602294921875,-0.1895504891872406,1.6430449485778809,0.5559237003326416
1783339091905575200,8.1405751953125,0.5648705959320068,1.0106414556503296,0.526542603969574
1783339091915548400,8.15054833984375,0.9929468035697937,0.03791569173336029,0.24442759156227112
1783339091925521400,8.160521484375,0.9457089900970459,-0.6469001770019531,-0.17915883660316467
1783339091935494100,8.170494140625,0.6888551115989685,-0.9422284960746765,-0.6228286623954773
1783339091945467100,8.180467041015625,0.5697231292724609,-0.8600630760192871,-0.8878137469291687
1783339091955439400,8.190439453125,0.7919024229049683,-0.7046034336090088,-0.9003899693489075
1783339091965412400,8.200412353515626,1.1309685707092285,-0.7500734329223633,-0.7116677165031433
1783339091975385000,8.210385009765625,1.3308258056640625,-0.9372676014900208,-0.38073083758354187
1783339091985358300,8.2203583984375,1.3480510711669922,-1.2103619575500488,-0.0367223285138607
1783339091995331300,8.230331298828125,1.2156544923782349,-1.3981324434280396,0.2126915007829666
1783339092005304300,8.24030419921875,0.9326683282852173,-1.5160303115844727,0.3526347577571869
1783339092015277300,8.25027734375,0.5322796106338501,-1.6666975021362305,0.4407281279563904
1783339092025250300,8.260250244140625,0.2768574357032776,-1.9146764278411865,0.538859486579895
1783339092035223300,8.270223388671875,0.3091655671596527,-1.999495506286621,0.6109070181846619
1783339092045196300,8.2801962890625,0.46093353629112244,-1.7937865257263184,0.6026456356048584
1783339092055169300,8.290169189453126,0.6017833352088928,-1.4299768209457397,0.4569435715675354
1783339092065142300,8.300142333984375,0.692324697971344,-1.0204119682312012,0.2561819851398468
1783339092075115300,8.310115234375,0.6750966906547546,-0.6737901568412781,0.11592793464660645
1783339092085088300,8.320088134765625,0.5755535960197449,-0.3821473717689514,0.1462424248456955
1783339092095061200,8.330061279296874,0.4251995086669922,-0.17031420767307281,0.3121807873249054
1783339092105034200,8.3400341796875,0.23734703660011292,0.02317109890282154,0.5443245768547058
1783339092115007500,8.350007568359375,0.06891088932752609,0.20318160951137543,0.7736413478851318
1783339092124979200,8.359979248046875,-0.08426720649003983,0.3420787751674652,0.9331532716751099
1783339092134952200,8.3699521484375,-0.2119111865758896,0.3437938392162323,0.9715080857276917
1783339092144925400,8.379925537109376,-0.28302451968193054,0.22216275334358215,0.9071698784828186
1783339092154898400,8.3898984375,-0.34371209144592285,0.06599047034978867,0.7779935002326965
1783339092164871200,8.39987109375,-0.4118030071258545,-0.025376196950674057,0.6141875386238098
1783339092174844200,8.40984423828125,-0.4696897268295288,-0.02159290947020054,0.39370203018188477
1783339092184817400,8.4198173828125,-0.5123770236968994,0.10755522549152374,0.1282210797071457
1783339092194790400,8.429790283203126,-0.522580623626709,0.3783731460571289,-0.1436953842639923
1783339092204763400,8.439763427734375,-0.45759153366088867,0.7516633868217468,-0.3994864225387573
1783339092214736100,8.449736083984375,-0.36261945962905884,1.102527141571045,-0.6297222971916199
1783339092224709400,8.45970947265625,-0.312285453081131,1.28684401512146,-0.813605010509491
1783339092234682400,8.469682373046876,-0.3537479639053345,1.2468293905258179,-0.9560260772705078
1783339092244655400,8.4796552734375,-0.4525110125541687,1.0763906240463257,-1.0730661153793335
1783339092254628400,8.48962841796875,-0.5523744821548462,0.9372121691703796,-1.1896796226501465
1783339092264601300,8.499601318359375,-0.6435648798942566,0.9780304431915283,-1.2807743549346924
1783339092274574300,8.50957421875,-0.7401963472366333,1.2059080600738525,-1.3264851570129395
1783339092284546300,8.51954638671875,-0.8610657453536987,1.585060715675354,-1.3234888315200806
1783339092294519300,8.529519287109375,-1.004562497138977,2.079005241394043,-1.259649395942688
1783339092304492300,8.5394921875,-1.1840461492538452,2.534834623336792,-1.1223058700561523
1783339092314465300,8.54946533203125,-1.3793983459472656,2.597249984741211,-0.8835591077804565
1783339092324438300,8.559438232421876,-1.4198390245437622,2.120790481567383,-0.6525309085845947
1783339092334411300,8.569411376953125,-1.2926843166351318,1.4171655178070068,-0.46566542983055115
1783339092344384300,8.57938427734375,-1.0805169343948364,0.8306817412376404,-0.3384334444999695
1783339092354357200,8.589357177734374,-0.7813200354576111,0.8516789078712463,-0.3793579638004303
1783339092364330200,8.599330322265626,-0.27993524074554443,1.3733402490615845,-0.629278838634491
1783339092374303200,8.60930322265625,0.3899424374103546,1.7660562992095947,-0.8602268695831299
1783339092384276500,8.6192763671875,1.1896287202835083,1.1154437065124512,-0.8108484148979187
1783339092394249200,8.629249267578125,1.616751790046692,-0.7360993027687073,-0.44200432300567627
1783339092404222200,8.63922216796875,1.4463627338409424,-2.0716235637664795,0.03708744794130325
1783339092414195200,8.6491953125,1.3136862516403198,-1.3943760395050049,0.3852619230747223
1783339092424168400,8.65916845703125,1.2058199644088745,0.6699796915054321,0.595862865447998
1783339092434141400,8.669141357421875,1.0066903829574585,1.3007699251174927,0.8017217516899109
1783339092444114200,8.6791142578125,0.833108127117157,0.5957043766975403,0.9014827013015747
1783339092454086400,8.68908642578125,0.8553918600082397,-0.33537641167640686,0.8414773941040039
1783339092464059400,8.699059326171875,0.8881410360336304,-1.1205042600631714,0.702796220779419
1783339092474032400,8.709032470703125,0.8730624914169312,-1.5867260694503784,0.5876851081848145
1783339092484005000,8.719005126953125,0.8859063982963562,-1.840134620666504,0.542232096195221
1783339092493978400,8.728978271484374,0.9238114356994629,-1.9409123659133911,0.5414445996284485
1783339092503951400,8.738951416015626,0.9363490343093872,-1.9480609893798828,0.580924928188324
1783339092513924400,8.74892431640625,0.8648959398269653,-1.9831486940383911,0.6840116381645203
1783339092523897300,8.7588974609375,0.6866241693496704,-2.0052905082702637,0.7927471399307251
1783339092533870300,8.768870361328124,0.521369993686676,-2.1106278896331787,0.8154362440109253
1783339092543843300,8.77884326171875,0.45807942748069763,-2.217130661010742,0.7263710498809814
1783339092553816300,8.78881640625,0.4464579224586487,-2.120311737060547,0.6021795868873596
1783339092563789300,8.798789306640625,0.43341001868247986,-1.8630433082580566,0.46912381052970886
1783339092573762300,8.80876220703125,0.39735350012779236,-1.5905274152755737,0.3294743001461029
1783339092583735300,8.8187353515625,0.34339144825935364,-1.3181939125061035,0.23058554530143738
1783339092593708300,8.828708251953126,0.2669816315174103,-1.0684146881103516,0.2132563441991806
1783339092603681300,8.838681396484375,0.21389098465442657,-0.9130682349205017,0.26141828298568726
1783339092613654000,8.848654052734375,0.21740901470184326,-0.8608703017234802,0.3320216238498688
1783339092623626000,8.8586259765625,0.2477802336215973,-0.8260830044746399,0.4080103933811188
1783339092633599000,8.868598876953126,0.2647443115711212,-0.7435207366943359,0.49562305212020874
1783339092643572000,8.878572021484375,0.26826128363609314,-0.6343729496002197,0.573300302028656
1783339092653545200,8.888545166015625,0.26894810795783997,-0.5509331822395325,0.6162586808204651
1783339092663518000,8.89851806640625,0.2786494791507721,-0.4585169851779938,0.6262335181236267
1783339092673491000,8.908490966796874,0.29652273654937744,-0.31184178590774536,0.6110729575157166
1783339092683464000,8.9184638671875,0.30878153443336487,-0.11596548557281494,0.5517017841339111
1783339092693437200,8.928437255859375,0.30175158381462097,0.02869955450296402,0.3941054940223694
1783339092703410200,8.93841015625,0.2615221440792084,0.04368888959288597,0.12518347799777985
1783339092713383000,8.9483828125,0.20978519320487976,-0.008791627362370491,-0.1966952234506607
1783339092723356000,8.95835595703125,0.14577238261699677,-0.028664400801062584,-0.4985402822494507
1783339092733329200,8.9683291015625,0.08544991910457611,0.0763363167643547,-0.7342273592948914
1783339092743302100,8.97830224609375,0.014368286356329918,0.2823350131511688,-0.8924964070320129
1783339092753275100,8.988275146484375,-0.08965665102005005,0.5416842699050903,-0.9697733521461487
1783339092763247900,8.998247802734374,-0.2299165576696396,0.7843549847602844,-0.9768378734588623
1783339092773220000,9.00822021484375,-0.4018118977546692,0.9896037578582764,-0.9330182671546936
1783339092783193000,9.018193115234375,-0.6036598086357117,1.229257583618164,-0.8484240174293518
1783339092793166000,9.028166015625,-0.8788021206855774,1.5854618549346924,-0.7410163283348083
1783339092803139000,9.03813916015625,-1.280953288078308,2.2004125118255615,-0.6332908868789673
1783339092813112000,9.048112060546876,-1.8055864572525024,3.27712345123291,-0.5311597585678101
1783339092823085000,9.0580849609375,-2.4314427375793457,4.655806541442871,-0.350010484457016
1783339092833058000,9.06805810546875,-2.9978461265563965,5.148545265197754,0.07461538165807724
1783339092843031000,9.078031005859375,-3.025200605392456,3.555635929107666,0.6813897490501404
1783339092853004000,9.088004150390624,-2.41988468170166,1.5007730722427368,1.2962470054626465
1783339092862977000,9.09797705078125,-1.6585325002670288,0.5138151049613953,1.5045320987701416
1783339092872950000,9.107949951171875,-1.0208882093429565,0.4133465588092804,0.7853859066963196
1783339092882923000,9.117923095703125,-0.6250604391098022,0.28684136271476746,-0.5516008734703064
1783339092892896000,9.12789599609375,-0.2597402334213257,0.8916153907775879,-1.736200213432312
1783339092902869000,9.137868896484376,0.5445210933685303,0.7025759816169739,-2.1427340507507324
1783339092912842000,9.147842041015625,1.9148551225662231,-1.3813332319259644,-1.3889756202697754
1783339092922815000,9.15781494140625,2.5758914947509766,-2.12325119972229,-0.2951778471469879
1783339092932788200,9.167788330078125,2.2757668495178223,-0.460706889629364,0.5573071837425232
1783339092942760000,9.177760009765626,1.5705156326293945,0.7094684839248657,1.1632682085037231
1783339092952733000,9.18773291015625,0.9772917032241821,0.4234530031681061,1.3994770050048828
1783339092962706200,9.1977060546875,0.8513148427009583,-0.374521404504776,1.4364808797836304
1783339092972679200,9.20767919921875,1.037226915359497,-1.092130422592163,1.2752137184143066
1783339092982652000,9.21765185546875,1.2752211093902588,-1.609330654144287,0.9944355487823486
1783339092992625000,9.227625,1.372037649154663,-1.8282971382141113,0.7157314419746399
1783339093002598100,9.23759814453125,1.3173550367355347,-1.8404695987701416,0.525566577911377
1783339093012571100,9.247571044921875,1.2222492694854736,-1.7706756591796875,0.41865476965904236
1783339093022544100,9.257544189453125,1.1416311264038086,-1.7292964458465576,0.307015597820282
1783339093032516900,9.267516845703126,0.9902666211128235,-1.739104151725769,0.10912195593118668
1783339093042490000,9.277489990234375,0.7157383561134338,-1.727104902267456,-0.1801615208387375
1783339093052463000,9.287463134765625,0.44202056527137756,-1.5245732069015503,-0.47702327370643616
1783339093062436000,9.29743603515625,0.2828202545642853,-1.166715145111084,-0.7168267965316772
1783339093072409000,9.3074091796875,0.2796982228755951,-0.8766888976097107,-0.9061527848243713
1783339093082382000,9.317382080078126,0.3490922152996063,-0.7066937685012817,-0.971406102180481
1783339093092355000,9.32735498046875,0.39746853709220886,-0.6519138813018799,-0.8746891617774963
1783339093102327000,9.3373271484375,0.37002280354499817,-0.6350933313369751,-0.700550377368927
1783339093112300000,9.347300048828124,0.30867233872413635,-0.5074432492256165,-0.5560749769210815
1783339093122273000,9.35727294921875,0.19794051349163055,-0.2723225951194763,-0.4895403981208801
1783339093132246000,9.36724609375,0.06771805882453918,-0.001583249308168888,-0.5174543261528015
1783339093142219000,9.377218994140625,0.008099205791950226,0.20877665281295776,-0.6126386523246765
1783339093152192000,9.38719189453125,0.011545069515705109,0.34558457136154175,-0.7445663213729858
1783339093162165200,9.397165283203124,0.07375464588403702,0.45009419322013855,-0.8853665590286255
1783339093172138000,9.407137939453126,0.2057981640100479,0.5906918048858643,-1.0247327089309692
1783339093182111000,9.417111083984375,0.420094758272171,0.7492721080780029,-1.1644240617752075
1783339093192084000,9.427083984375,0.6155015230178833,0.9233701229095459,-1.2878735065460205
1783339093202057200,9.43705712890625,0.7708298563957214,1.1518293619155884,-1.3611842393875122
1783339093212030000,9.447030029296876,0.871578574180603,1.2772938013076782,-1.3756263256072998
1783339093222003000,9.4570029296875,0.8454569578170776,1.1245418787002563,-1.3471113443374634
1783339093231976000,9.466975830078125,0.6307902336120605,0.6682387590408325,-1.2742195129394531
1783339093241949200,9.47694921875,0.22132013738155365,0.03674736246466637,-1.1660144329071045
1783339093251921000,9.4869208984375,-0.30530107021331787,-0.5230426788330078,-1.0750470161437988
1783339093261894000,9.496893798828125,-0.7291295528411865,-0.6334866285324097,-1.0252659320831299
1783339093271867100,9.5068671875,-0.9783217906951904,-0.16382035613059998,-1.0131982564926147
1783339093281840000,9.516840087890625,-1.1405948400497437,0.899291455745697,-1.1060869693756104
1783339093291813000,9.526813232421874,-1.2576298713684082,2.3446044921875,-1.351790428161621
1783339093301785900,9.536785888671876,-1.396315574645996,3.883357524871826,-1.6661609411239624
1783339093311759000,9.546759033203125,-1.373753547668457,4.496738910675049,-1.829158067703247
1783339093321732000,9.556732177734375,-1.0681755542755127,3.5598394870758057,-1.8179887533187866
1783339093331705000,9.566705078125,-0.5946388840675354,2.4739482402801514,-1.5621362924575806
1783339093341678000,9.576677978515624,-0.006632070057094097,2.302563190460205,-0.8264225721359253
1783339093351651000,9.586651123046876,0.4943719208240509,3.149529457092285,0.21899360418319702
1783339093361624000,9.5966240234375,0.915288507938385,3.1736934185028076,1.4816349744796753
1783339093371597000,9.60659716796875,1.4698693752288818,1.5613511800765991,2.8055076599121094
1783339093381570000,9.616570068359374,1.7227003574371338,-0.22754767537117004,3.9244208335876465
1783339093391543000,9.62654296875,1.3020378351211548,-0.23253630101680756,4.394170761108398
1783339093401516000,9.63651611328125,0.8025174736976624,0.9612464308738708,4.38961935043335
1783339093411488000,9.646488037109375,0.6389586329460144,1.2614973783493042,4.176827430725098
1783339093421461000,9.6564609375,0.8315414190292358,0.3901650905609131,3.7607898712158203
1783339093431434200,9.666434326171874,1.158247947692871,-0.6517250537872314,2.9731624126434326
1783339093441407000,9.676406982421875,1.1740885972976685,-1.4895941019058228,1.7898259162902832
1783339093451380000,9.6863798828125,1.1207737922668457,-1.9173781871795654,0.5485102534294128
1783339093461353000,9.69635302734375,1.1628639698028564,-2.2083957195281982,-0.5258129239082336
1783339093471326200,9.706326171875,1.170096516609192,-2.5102553367614746,-1.4194915294647217
1783339093481299200,9.71629931640625,1.0820636749267578,-2.792222023010254,-2.146122932434082
1783339093491272000,9.72627197265625,0.9485825300216675,-2.997436761856079,-2.645429849624634
1783339093501245000,9.736244873046875,0.7938177585601807,-3.1204848289489746,-2.776712417602539
1783339093511218200,9.74621826171875,0.5956096053123474,-3.211604356765747,-2.554547071456909
1783339093521191200,9.756191162109374,0.3512360453605652,-3.4173169136047363,-2.147822618484497
1783339093531164200,9.7661640625,0.06575371325016022,-3.5669448375701904,-1.6669206619262695
1783339093541136100,9.77613623046875,-0.2365712672472,-3.5048067569732666,-1.1751736402511597
1783339093551109000,9.786109130859375,-0.4681150019168854,-3.0741701126098633,-0.7128387093544006
1783339093561082000,9.79608203125,-0.5041102766990662,-2.363898754119873,-0.2638196647167206
1783339093571054800,9.806054931640626,-0.39849117398262024,-1.711326241493225,0.17278748750686646
1783339093581028000,9.816028076171875,-0.24197295308113098,-1.2685402631759644,0.5382554531097412
1783339093591001000,9.8260009765625,-0.10575199872255325,-1.0477283000946045,0.7898493409156799
1783339093600974000,9.83597412109375,0.04595896974205971,-0.8961204290390015,0.9281315803527832
1783339093610947000,9.845947021484376,0.22048310935497284,-0.7048450112342834,0.9844833016395569
1783339093620920000,9.855920166015625,0.36392414569854736,-0.3258625268936157,0.9299846291542053
1783339093630893000,9.86589306640625,0.4621385931968689,0.23303724825382233,0.7561079263687134
1783339093640866000,9.875865966796875,0.5382416248321533,0.788931667804718,0.47903451323509216
1783339093650838000,9.885838134765624,0.5650908350944519,1.1466439962387085,0.10627610236406326
1783339093660811000,9.89581103515625,0.4915391206741333,1.1936676502227783,-0.3638908565044403
1783339093670784000,9.905783935546875,0.4043898284435272,1.1989026069641113,-0.7720738053321838
1783339093680756700,9.9157568359375,0.31381916999816895,1.366793155670166,-1.0147812366485596
1783339093690730000,9.92572998046875,0.2581801414489746,1.5272972583770752,-1.123987078666687
1783339093700703000,9.935702880859376,0.1399824023246765,1.6538368463516235,-1.096711277961731
1783339093710676000,9.945676025390625,-0.02533039078116417,1.595435380935669,-0.9585251808166504
1783339093720649000,9.95564892578125,-0.17880409955978394,1.3427256345748901,-0.7350249886512756
1783339093730621700,9.96562158203125,-0.34669697284698486,1.0625908374786377,-0.47554707527160645
1783339093740595000,9.975594970703124,-0.5152297616004944,0.8918023705482483,-0.24355380237102509
1783339093750568000,9.98556787109375,-0.7048210501670837,0.854019045829773,-0.08745874464511871
1783339093760541000,9.995541015625,-0.9382483959197998,0.9132802486419678,-0.008154865354299545
1783339093770514000,10.005513916015625,-1.1731808185577393,0.9919939637184143,0.01366095058619976
1783339093780487000,10.01548681640625,-1.415466070175171,1.0969659090042114,-0.013168798759579659
1783339093790460000,10.0254599609375,-1.6102294921875,1.0801345109939575,-0.04454030469059944
1783339093800431900,10.035431884765625,-1.717244029045105,1.4969412088394165,-0.06334754824638367
1783339093810405000,10.045405029296875,-1.69460129737854,2.059943199157715,-0.09927305579185486
1783339093820377900,10.0553779296875,-1.4965438842773438,1.5908408164978027,-0.09538085013628006
1783339093830350800,10.065350830078126,-1.2276378870010376,0.8716182708740234,-0.1034851148724556
1783339093840323800,10.07532373046875,-0.9933859705924988,1.4446303844451904,-0.2682897746562958
1783339093850297000,10.085297119140625,-0.6997162699699402,2.6431429386138916,-0.5212780833244324
1783339093860270000,10.09527001953125,-0.10915897786617279,2.663289785385132,-0.6080965995788574
1783339093870242800,10.105242919921874,0.6101749539375305,0.99949049949646,-0.26227903366088867
1783339093880215800,10.1152158203125,1.124963402748108,-1.2138139009475708,0.566290020942688
1783339093890189000,10.12518896484375,0.8679079413414001,-1.0110642910003662,1.322632074356079
1783339093900162000,10.135162109375,0.7866122722625732,2.459286689758301,1.8223968744277954
1783339093910135000,10.145135009765625,0.7542191743850708,3.189302444458008,2.086653470993042
1783339093920107800,10.155107666015626,0.8033025860786438,0.889428436756134,2.104886770248413
1783339093930080800,10.165080810546876,0.6488631963729858,-1.3819864988327026,1.8814133405685425
1783339093940054000,10.175053955078125,0.49862179160118103,-1.9262553453445435,1.4614613056182861
1783339093950026000,10.18502587890625,0.5601791739463806,-1.607999324798584,0.9627434015274048
1783339093959998700,10.194998779296874,0.7057682871818542,-1.474927306175232,0.4326033592224121
1783339093969972000,10.204971923828126,0.8233370184898376,-1.5889039039611816,-0.04850601777434349
1783339093979945000,10.214945068359375,0.9214092493057251,-1.7984275817871094,-0.38857516646385193
1783339093989918000,10.22491796875,1.0427995920181274,-2.068016529083252,-0.569197952747345
1783339093999891000,10.234890869140624,1.1267368793487549,-2.2823987007141113,-0.5671175122261047
1783339094009864000,10.244864013671876,1.0675592422485352,-2.43528151512146,-0.4306184947490692
1783339094019837000,10.2548369140625,0.9965870976448059,-2.453948736190796,-0.16404619812965393
1783339094029810000,10.264809814453125,0.8513883352279663,-2.26128888130188,0.19383631646633148
1783339094039783000,10.274782958984375,0.6842694282531738,-1.9039428234100342,0.561800479888916
1783339094049756000,10.284755859375,0.5784998536109924,-1.5918432474136353,0.8083159923553467
1783339094059729000,10.29472900390625,0.46828997135162354,-1.4144575595855713,0.8517739772796631
1783339094069702000,10.304701904296875,0.3317214846611023,-1.2114133834838867,0.7974854707717896
1783339094079675000,10.3146748046875,0.25623390078544617,-0.9583350419998169,0.6792746782302856
1783339094089646800,10.324646728515624,0.26072853803634644,-0.7553507685661316,0.4726112186908722
1783339094099619800,10.334619873046876,0.2816769480705261,-0.5770529508590698,0.23773106932640076
1783339094109592800,10.3445927734375,0.2704448103904724,-0.39528393745422363,0.002240783767774701
1783339094119566000,10.354566162109375,0.23941712081432343,-0.25186285376548767,-0.21798346936702728
1783339094129539000,10.3645390625,0.21346993744373322,-0.14850452542304993,-0.41836556792259216
1783339094139511800,10.37451171875,0.21935951709747314,-0.09442051500082016,-0.5849172472953796
1783339094149484800,10.38448486328125,0.2556549310684204,-0.07671155780553818,-0.7064290642738342
1783339094159458000,10.3944580078125,0.282800555229187,-0.03581951558589935,-0.8146087527275085
1783339094169431000,10.40443115234375,0.2562309801578522,0.06093898415565491,-0.9244580268859863
1783339094179404000,10.414404052734374,0.19968967139720917,0.19121789932250977,-1.0289727449417114
1783339094189376800,10.424376708984376,0.13063177466392517,0.31909462809562683,-1.1007359027862549
1783339094199349800,10.434349853515625,0.05806037411093712,0.40186354517936707,-1.1098170280456543
1783339094209323000,10.444322998046875,-0.0023062974214553833,0.4117353558540344,-1.063218593597412
1783339094219296000,10.4542958984375,-0.06476567685604095,0.3684978783130646,-0.9904634356498718
1783339094229267700,10.464267822265626,-0.17899878323078156,0.34376803040504456,-0.9203293323516846
1783339094239241000,10.474240966796875,-0.372242271900177,0.39205431938171387,-0.8682560324668884
1783339094249214000,10.4842138671875,-0.6419315338134766,0.5418946743011475,-0.8243870735168457
1783339094259187000,10.49418701171875,-0.9600144624710083,0.7534231543540955,-0.7832082509994507
1783339094269160000,10.504159912109374,-1.315772533416748,1.0076309442520142,-0.7472212314605713
1783339094279133000,10.5141328125,-1.7279441356658936,1.2537083625793457,-0.7201246023178101
1783339094289106000,10.52410595703125,-2.1547720432281494,1.4380062818527222,-0.6908572912216187
1783339094299079000,10.534078857421875,-2.514458417892456,1.584895133972168,-0.6349641680717468
1783339094309052000,10.544052001953125,-2.641505479812622,1.5323714017868042,-0.5106656551361084
1783339094319025200,10.554025146484374,-2.5154106616973877,1.2199347019195557,-0.37542474269866943
1783339094328998000,10.563997802734375,-2.219630718231201,0.7424741387367249,-0.35896188020706177
1783339094338971000,10.573970947265625,-1.8681784868240356,0.8280726671218872,-0.5287131071090698
1783339094348944000,10.58394384765625,-1.4405254125595093,1.5621721744537354,-0.7545505166053772
1783339094358917000,10.593917236328124,-0.7757338285446167,2.0490193367004395,-0.7928667068481445
1783339094368888800,10.603888916015626,0.19045382738113403,2.039285659790039,-0.53056800365448
1783339094378861800,10.61386181640625,1.1193194389343262,1.3553452491760254,0.07120627164840698
1783339094388835000,10.6238349609375,1.338355302810669,0.047394946217536926,0.8333600759506226
1783339094398808000,10.63380810546875,1.002954125404358,-0.4872561991214752,1.443912148475647
1783339094408780800,10.64378076171875,0.682401180267334,-0.03972983732819557,1.7218973636627197
1783339094418753800,10.65375390625,0.634726881980896,0.07084008306264877,1.803747534751892
1783339094428726800,10.663726806640625,0.764661967754364,-0.2118249088525772,1.7304050922393799
1783339094438700000,10.673699951171875,0.9318584203720093,-0.5087924003601074,1.6074461936950684
1783339094448673000,10.683673095703124,1.0735570192337036,-0.7476699352264404,1.5359605550765991
1783339094458645800,10.693645751953126,1.2312864065170288,-1.0438510179519653,1.4622479677200317
1783339094468618800,10.70361865234375,1.3514213562011719,-1.4772365093231201,1.3142215013504028
1783339094478592000,10.713592041015625,1.3308346271514893,-1.9168530702590942,1.0755311250686646
1783339094488565000,10.72356494140625,1.2807013988494873,-2.1813061237335205,0.8099578022956848
1783339094498538000,10.7335380859375,1.3096784353256226,-2.22342586517334,0.5637938380241394
1783339094508510000,10.743510009765625,1.3498082160949707,-2.1207995414733887,0.3668810725212097
1783339094518483000,10.75348291015625,1.2095211744308472,-2.033132314682007,0.21202704310417175
1783339094528456000,10.7634560546875,0.9721843004226685,-1.964107632637024,0.16039420664310455
1783339094538429000,10.773428955078124,0.7694061398506165,-1.8461413383483887,0.2108621746301651
1783339094548402000,10.78340185546875,0.6070257425308228,-1.6859607696533203,0.2662396728992462
1783339094558375000,10.793375,0.49548962712287903,-1.4821529388427734,0.30982735753059387
1783339094568348000,10.803347900390625,0.46304354071617126,-1.1967066526412964,0.36677905917167664
1783339094578321000,10.81332080078125,0.47722646594047546,-0.8562113642692566,0.40752142667770386
1783339094588294100,10.823294189453126,0.5038245320320129,-0.5909005999565125,0.3059854805469513
1783339094598267000,10.833266845703125,0.5545015335083008,-0.43265634775161743,0.07915820181369781
1783339094608239900,10.843239990234375,0.568663477897644,-0.33382296562194824,-0.17137201130390167
1783339094618212900,10.853212890625,0.5240006446838379,-0.23080232739448547,-0.3884934186935425
1783339094628186000,10.86318603515625,0.4399861693382263,-0.07033674418926239,-0.5461512207984924
1783339094638159000,10.8731591796875,0.3641132414340973,0.13045547902584076,-0.6376598477363586
1783339094648130800,10.883130859375,0.30666857957839966,0.3321462571620941,-0.675225555896759
1783339094658104000,10.89310400390625,0.25786563754081726,0.5148462653160095,-0.6903717517852783
1783339094668077000,10.9030771484375,0.222696453332901,0.707490861415863,-0.7083070874214172
1783339094678050000,10.913050048828126,0.17977695167064667,0.9061320424079895,-0.7408347129821777
1783339094688023000,10.92302294921875,0.09477338194847107,1.011743426322937,-0.7793874144554138
1783339094697995800,10.932995849609375,-0.010361826978623867,1.0024715662002563,-0.8209201693534851
1783339094707969000,10.942968994140625,-0.09516353160142899,0.9025732278823853,-0.8673803806304932
1783339094717942000,10.95294189453125,-0.13994193077087402,0.7637815475463867,-0.9089565873146057
1783339094727915000,10.9629150390625,-0.18849614262580872,0.6644954681396484,-0.9365447759628296
1783339094737888000,10.972887939453125,-0.26298102736473083,0.6788959503173828,-0.9245704412460327
1783339094747861000,10.982861083984375,-0.36388394236564636,0.8618897199630737,-0.8458045125007629
1783339094757834000,10.992833984375,-0.4661431908607483,1.1622631549835205,-0.7059078812599182
1783339094767807000,11.002806884765626,-0.5632846355438232,1.5068367719650269,-0.5354024171829224
1783339094777780000,11.012780029296875,-0.7135862708091736,1.9042965173721313,-0.36705976724624634
1783339094787752000,11.022751953125,-0.9266442060470581,2.3861351013183594,-0.19890643656253815
1783339094797725000,11.032724853515624,-1.1599986553192139,2.817737579345703,0.019411249086260796
1783339094807698000,11.042697998046876,-1.4125827550888062,2.942052125930786,0.3324469327926636
1783339094817671200,11.052671142578125,-1.6623361110687256,2.655445098876953,0.7008148431777954
1783339094827644200,11.06264404296875,-1.792854905128479,1.6432892084121704,0.9748575687408447
1783339094837617000,11.072616943359375,-1.727108120918274,1.0245990753173828,0.781463623046875
1783339094847590000,11.08258984375,-1.4498847723007202,1.1183383464813232,0.1529722362756729
1783339094857563100,11.092563232421876,-1.0885285139083862,1.1517242193222046,-0.5284545421600342
1783339094867536100,11.1025361328125,-0.6716777086257935,1.2857789993286133,-1.00890052318573
1783339094877509000,11.112509033203125,-0.18108589947223663,1.3764822483062744,-1.0647051334381104
1783339094887481900,11.12248193359375,0.22545255720615387,1.0136356353759766,-0.5688413381576538
1783339094897455000,11.132455078125,0.4427814185619354,0.26372379064559937,0.12629695236682892
1783339094907428000,11.142427978515625,0.5676820874214172,-0.15135890245437622,0.4990287125110626
1783339094917401000,11.152401123046875,0.7164800763130188,-0.35436099767684937,0.5553191304206848
1783339094927373000,11.162373046875,0.8622125387191772,-0.6708510518074036,0.4792078733444214
1783339094937346000,11.172345947265624,0.954888641834259,-1.049929141998291,0.39691513776779175
1783339094947319000,11.182319091796876,0.974246621131897,-1.4364590644836426,0.3401698172092438
1783339094957292000,11.1922919921875,0.9486305117607117,-1.8114176988601685,0.33789655566215515
1783339094967264800,11.2022646484375,0.8785818815231323,-2.130823850631714,0.3779403865337372
1783339094977238000,11.212238037109374,0.7575332522392273,-2.421577215194702,0.41804251074790955
1783339094987211000,11.2222109375,0.5886643528938293,-2.6706902980804443,0.4645706117153168
1783339094997184000,11.23218408203125,0.3582358956336975,-2.814443349838257,0.5138745307922363
1783339095007157000,11.242156982421875,0.1517365276813507,-2.821378707885742,0.5624239444732666
1783339095017130000,11.2521298828125,0.12044066190719604,-2.6489477157592773,0.5912124514579773
1783339095027103000,11.26210302734375,0.27390772104263306,-2.375774621963501,0.5847066044807434
1783339095037076000,11.272075927734376,0.5106041431427002,-2.039794921875,0.5655360817909241
1783339095047049000,11.282049072265625,0.7226868271827698,-1.7346616983413696,0.5178530216217041
1783339095057021000,11.29202099609375,0.8312197327613831,-1.5459951162338257,0.43344196677207947
1783339095066994000,11.301993896484374,0.8451485633850098,-1.4664579629898071,0.3254377543926239
1783339095076967000,11.311966796875,0.7984007596969604,-1.3767133951187134,0.25678226351737976
1783339095086940200,11.321940185546875,0.7196183204650879,-1.2051368951797485,0.21683751046657562
1783339095096913200,11.3319130859375,0.6600032448768616,-0.9557831883430481,0.12494885921478271
1783339095106886000,11.341885986328125,0.6053245067596436,-0.6900814771652222,-0.010904313065111637
1783339095116859000,11.35185888671875,0.5300974249839783,-0.4417760670185089,-0.12840723991394043
1783339095126832000,11.36183203125,0.4302626848220825,-0.2575250267982483,-0.21720635890960693
1783339095136805000,11.37180517578125,0.33544057607650757,-0.1746532917022705,-0.28859370946884155
1783339095146778000,11.381778076171875,0.2684359848499298,-0.14841210842132568,-0.3318146765232086
1783339095156750800,11.391750732421874,0.2466968595981598,-0.07077110558748245,-0.3569783568382263
1783339095166723800,11.401723876953126,0.23205454647541046,0.09592759609222412,-0.38126134872436523
1783339095176697000,11.411697021484375,0.21258389949798584,0.27108609676361084,-0.4149915874004364
1783339095186669000,11.4216689453125,0.14689943194389343,0.3351241946220398,-0.48887062072753906
1783339095196642000,11.43164208984375,0.026030534878373146,0.30837196111679077,-0.5868530869483948
1783339095206615000,11.441614990234376,-0.09324446320533752,0.2668876349925995,-0.7092101573944092
1783339095216588000,11.451588134765625,-0.2110171616077423,0.2691662311553955,-0.8456375002861023
1783339095226561000,11.46156103515625,-0.34494513273239136,0.3918718993663788,-0.987837016582489
1783339095236534000,11.471533935546875,-0.47863075137138367,0.6275901794433594,-1.1106334924697876
1783339095246507000,11.481507080078124,-0.6172791719436646,0.9398926496505737,-1.2137199640274048
1783339095256480000,11.49147998046875,-0.8062488436698914,1.3467307090759277,-1.28865647315979
1783339095266453000,11.501452880859375,-1.1156855821609497,2.040522336959839,-1.3271924257278442
1783339095276426000,11.511426025390625,-1.6478657722473145,3.278123378753662,-1.2669302225112915
1783339095286399200,11.521399169921875,-2.3893446922302246,4.760400295257568,-0.9600275158882141
1783339095296372000,11.5313720703125,-3.1974472999572754,5.652457237243652,-0.2528591454029083
1783339095306345000,11.541344970703125,-3.594489574432373,3.9779226779937744,0.545881450176239
1783339095316317200,11.551317138671875,-3.114818572998047,1.299766182899475,1.0713553428649902
1783339095326290000,11.5612900390625,-2.138817310333252,0.35330265760421753,0.8563005328178406
1783339095336263000,11.571262939453124,-1.015321135520935,1.232833743095398,0.15308143198490143
1783339095346236000,11.58123583984375,0.07738640159368515,2.268791437149048,-0.5297269821166992
1783339095356209200,11.591209228515625,0.9456618428230286,2.195418119430542,-0.8732571601867676
1783339095366182100,11.60118212890625,1.396470546722412,1.0942134857177734,-0.8518048524856567
1783339095376155000,11.61115478515625,1.390952467918396,-0.2740381956100464,-0.49220010638237
1783339095386128000,11.6211279296875,1.1612863540649414,-0.536471962928772,0.2927040457725525
1783339095396101000,11.63110107421875,0.7259401679039001,0.6359889507293701,1.2965786457061768
1783339095406074000,11.64107421875,0.32766708731651306,0.5880619287490845,1.7156102657318115
1783339095416047000,11.651047119140625,0.22525230050086975,-0.2693646252155304,1.4313710927963257
1783339095426019800,11.661019775390624,0.4493629038333893,-0.7821243405342102,0.9961170554161072
1783339095435992800,11.670992919921876,0.7856972217559814,-1.1484719514846802,0.7600648403167725
1783339095445965000,11.680965087890625,1.0062352418899536,-1.611570954322815,0.6472112536430359
1783339095455938000,11.69093798828125,1.0585860013961792,-2.0403711795806885,0.5675449371337891
1783339095465910800,11.700910888671874,1.012648344039917,-2.226252794265747,0.48049870133399963
1783339095475884000,11.710884033203126,0.8961667418479919,-2.2398362159729004,0.391592800617218
1783339095485857000,11.72085693359375,0.6491519212722778,-2.2371764183044434,0.29127737879753113
1783339095495830000,11.730830078125,0.33564645051956177,-2.2062525749206543,0.22959217429161072
1783339095505803000,11.740802978515624,0.11752742528915405,-2.1949379444122314,0.17323462665081024
1783339095515776000,11.75077587890625,0.09042124450206757,-2.205270290374756,0.057126935571432114
1783339095525749000,11.7607490234375,0.20666636526584625,-2.18376088142395,-0.12736648321151733
1783339095535722000,11.770721923828125,0.3803372085094452,-2.018003463745117,-0.31408682465553284
1783339095545695000,11.780695068359375,0.5704213976860046,-1.6994842290878296,-0.4206044673919678
1783339095555668200,11.790668212890624,0.6610527634620667,-1.3787219524383545,-0.4570748805999756
1783339095565640000,11.800639892578126,0.6352062821388245,-1.0674799680709839,-0.36855512857437134
1783339095575613000,11.810613037109375,0.5696097016334534,-0.8538981080055237,-0.1861986368894577
1783339095585586200,11.820586181640625,0.5716973543167114,-0.7570821046829224,0.044613275676965714
1783339095595559200,11.83055908203125,0.6494137048721313,-0.708102285861969,0.2298063039779663
1783339095605532000,11.840531982421876,0.6701536178588867,-0.623516321182251,0.37041375041007996
1783339095615504600,11.850504638671875,0.648318350315094,-0.5115817785263062,0.49307042360305786
1783339095625478000,11.860477783203125,0.5846770405769348,-0.4421420097351074,0.5971837639808655
1783339095635451000,11.870450927734375,0.5118313431739807,-0.35994645953178406,0.6546646356582642
1783339095645423600,11.880423583984374,0.4481588900089264,-0.22948965430259705,0.6409350037574768
1783339095655396600,11.890396728515626,0.37068167328834534,-0.11401472240686417,0.5319064855575562
1783339095665369900,11.900369873046875,0.2752893567085266,-0.0288793183863163,0.3142860233783722
1783339095675342800,11.9103427734375,0.19192549586296082,-0.010005762800574303,0.009887252002954483
1783339095685315800,11.92031591796875,0.11327675729990005,-0.04779175668954849,-0.32594695687294006
1783339095695287800,11.930287841796876,0.030490264296531677,-0.063967265188694,-0.6207277178764343
1783339095705260800,11.9402607421875,-0.06887839734554291,-0.003186738584190607,-0.8363667726516724
1783339095715233800,11.95023388671875,-0.1862737387418747,0.16312633454799652,-0.9597710371017456
1783339095725206800,11.960206787109374,-0.3251575827598572,0.40530648827552795,-1.0117026567459106
1783339095735179800,11.9701796875,-0.5162327289581299,0.6874715685844421,-1.0071555376052856
1783339095745152800,11.98015283203125,-0.7856836318969727,1.009494423866272,-0.9376489520072937
1783339095755125800,11.990125732421875,-1.1464389562606812,1.4363844394683838,-0.7926589846611023
1783339095765098800,12.0000986328125,-1.6229966878890991,2.169980764389038,-0.5604710578918457
1783339095775071700,12.01007177734375,-2.180184841156006,3.4385225772857666,-0.23833800852298737
1783339095785044700,12.020044677734376,-2.79596209526062,5.031155109405518,0.24634400010108948
1783339095795017700,12.030017822265625,-3.3070435523986816,5.214667320251465,0.7480118870735168
1783339095804990700,12.03999072265625,-3.192209243774414,3.1445705890655518,1.051491141319275
1783339095814963700,12.049963623046875,-2.6096248626708984,1.5803849697113037,1.0720679759979248
1783339095824935700,12.059935791015626,-2.0419886112213135,1.8562475442886353,0.6259589791297913
1783339095834908700,12.06990869140625,-1.4362754821777344,1.5358620882034302,-0.39251717925071716
1783339095844881700,12.079881591796875,-0.8286673426628113,1.117045283317566,-1.4741419553756714
1783339095854855000,12.08985498046875,0.0006982808117754757,1.4184331893920898,-2.103604555130005
1783339095864828000,12.099827880859374,1.0545865297317505,1.1224262714385986,-2.140136957168579
1783339095874800600,12.109800537109376,1.579134464263916,-0.12432541698217392,-1.6772361993789673
1783339095884773600,12.119773681640625,1.678842306137085,-1.278491497039795,-0.6483489871025085
1783339095894747000,12.129746826171875,1.6383212804794312,-0.9397504329681396,0.6970978379249573
1783339095904720000,12.139719970703124,1.5863395929336548,0.049250371754169464,1.627939224243164
1783339095914692900,12.14969287109375,1.4236334562301636,-0.011916580609977245,1.9294910430908203
1783339095924665600,12.15966552734375,1.1396678686141968,-0.9251667261123657,1.8157179355621338
1783339095934638800,12.169638916015625,0.8695399165153503,-1.7014070749282837,1.587066888809204
1783339095944610800,12.17961083984375,0.8766151666641235,-2.166656970977783,1.3706624507904053
1783339095954583600,12.18958349609375,0.9281270503997803,-2.498171329498291,1.1004269123077393
1783339095964556800,12.199556884765625,0.940100908279419,-2.682960271835327,0.8119027614593506
1783339095974529800,12.20952978515625,0.8563966751098633,-2.6384003162384033,0.4927942454814911
1783339095984502800,12.219502685546875,0.7271708250045776,-2.438999891281128,0.21433919668197632
1783339095994475800,12.229475830078124,0.6793223023414612,-2.111436128616333,0.043182358145713806
1783339096004448800,12.23944873046875,0.6847916841506958,-1.8198977708816528,-0.04860375449061394
1783339096014421800,12.249421875,0.7041416764259338,-1.7343891859054565,-0.10817068070173264
1783339096024394800,12.259394775390625,0.7284243702888489,-1.7577425241470337,-0.1400633603334427
1783339096034367700,12.26936767578125,0.7753580212593079,-1.73544442653656,-0.10710488259792328
1783339096044340700,12.2793408203125,0.827499270439148,-1.6728976964950562,-0.07734512537717819
1783339096054313700,12.289313720703126,0.859241247177124,-1.498748779296875,-0.041740257292985916
1783339096064285700,12.29928564453125,0.827636182308197,-1.1549493074417114,0.08201630413532257
1783339096074258700,12.3092587890625,0.7649543881416321,-0.8137248754501343,0.2623935341835022
1783339096084232000,12.31923193359375,0.689490795135498,-0.6153467893600464,0.4354148507118225
1783339096094204700,12.32920458984375,0.6409786343574524,-0.5181131958961487,0.5970447659492493
1783339096104177700,12.339177734375,0.615221381187439,-0.4290030300617218,0.7686774730682373
1783339096114150700,12.349150634765625,0.5763331055641174,-0.31201356649398804,0.9314733147621155
1783339096124124000,12.3591240234375,0.5314697623252869,-0.24951155483722687,1.0264685153961182
1783339096134097000,12.369096923828126,0.49934881925582886,-0.21202704310417175,1.0182327032089233
1783339096144069600,12.379069580078125,0.4887363910675049,-0.14244449138641357,0.9016669988632202
1783339096154042600,12.389042724609375,0.47511112689971924,-0.05450744926929474,0.6985942721366882
1783339096164015900,12.399015869140625,0.4331631362438202,0.022842464968562126,0.4464286267757416
1783339096173988900,12.40898876953125,0.38164907693862915,0.017731592059135437,0.14949575066566467
1783339096183960600,12.418960693359375,0.33982014656066895,-0.08753224462270737,-0.1656174659729004
1783339096193933800,12.428933837890625,0.2738315463066101,-0.21702206134796143,-0.45392754673957825
1783339096203906800,12.43890673828125,0.2013389766216278,-0.2809099555015564,-0.7034342885017395
1783339096213879800,12.4488798828125,0.12034744769334793,-0.1900133490562439,-0.899153470993042
1783339096223852800,12.458852783203126,0.021281586959958076,0.07939841598272324,-1.047845482826233
1783339096233825800,12.46882568359375,-0.11571727693080902,0.4345559775829315,-1.1681915521621704
1783339096243798800,12.478798828125,-0.3491625189781189,0.8722696900367737,-1.2422845363616943
1783339096253771800,12.488771728515625,-0.7591961026191711,1.5205693244934082,-1.204594612121582
1783339096263744800,12.498744873046874,-1.4698220491409302,3.061948776245117,-0.992917537689209
1783339096273717800,12.5087177734375,-2.565547227859497,5.5083794593811035,-0.4521717131137848
1783339096283690800,12.518690673828125,-3.702657699584961,6.487431526184082,0.31089529395103455
1783339096293663700,12.528663818359375,-4.423666477203369,5.801609039306641,1.0698261260986328
