time,seconds_elapsed,z,y,x
1783339083837483300,0.072483154296875,-0.05691521614789963,-0.36959701776504517,-0.25552627444267273
1783339083847456300,0.082456298828125,-0.0038589241448789835,-0.2860989272594452,-0.21228131651878357
1783339083857429200,0.09242919921875,0.028510816395282745,-0.18365396559238434,-0.1743362993001938
1783339083867402200,0.10240234375,0.03264963626861572,-0.05512955039739609,-0.14573608338832855
1783339083877375500,0.11237548828125,0.01343323104083538,0.08288872987031937,-0.12604522705078125
1783339083887347200,0.12234716796875,-0.004954298492521048,0.20960406959056854,-0.11936789005994797
1783339083897320200,0.1323203125,-0.0225183367729187,0.2889077365398407,-0.12542127072811127
1783339083907293400,0.14229345703125,-0.032655127346515656,0.3171609342098236,-0.13955174386501312
1783339083917266400,0.152266357421875,-0.034835465252399445,0.25104910135269165,-0.18081146478652954
1783339083927239200,0.1622392578125,-0.022857898846268654,0.11665108054876328,-0.2627606689929962
1783339083937212200,0.172212158203125,-0.014186263084411621,-0.0039124153554439545,-0.38729530572891235
1783339083947185200,0.18218505859375,-0.023001326248049736,-0.02650560811161995,-0.5502874255180359
1783339083957157400,0.192157470703125,-0.06630288064479828,0.0550946444272995,-0.7101917862892151
1783339083967130000,0.202130126953125,-0.1288757026195526,0.23592647910118103,-0.8242259621620178
1783339083977103400,0.212103271484375,-0.1593991369009018,0.54249107837677,-0.9355705380439758
1783339083987076400,0.222076416015625,-0.17543669044971466,0.9445381164550781,-1.030652642250061
1783339083997049300,0.23204931640625,-0.13379810750484467,1.4051659107208252,-1.2440717220306396
1783339084007022000,0.24202197265625,0.008151840418577194,1.7873753309249878,-1.5484095811843872
1783339084016994300,0.251994384765625,0.20719625055789948,2.0404818058013916,-1.8806887865066528
1783339084026967300,0.26196728515625,0.3770798146724701,2.3543789386749268,-2.1600255966186523
1783339084036940300,0.271940185546875,0.4738553762435913,2.7933781147003174,-2.3504700660705566
1783339084046913000,0.2819130859375,0.4873722493648529,3.3447980880737305,-2.415618419647217
1783339084056886300,0.29188623046875,0.44961729645729065,3.7424721717834473,-2.354383945465088
1783339084066859300,0.301859375,0.44352930784225464,3.6688644886016846,-2.150752067565918
1783339084076831200,0.311831298828125,0.45355063676834106,3.408205986022949,-1.8813972473144531
1783339084086804200,0.32180419921875,0.4722052812576294,2.950129270553589,-1.5263347625732422
1783339084096777200,0.331777099609375,0.4854285717010498,2.6381688117980957,-1.1598992347717285
1783339084106750200,0.341750244140625,0.4461698532104492,2.4510741233825684,-0.7709254026412964
1783339084116723200,0.35172314453125,0.3470919132232666,2.3691036701202393,-0.3553045392036438
1783339084126696400,0.361696533203125,0.16363395750522614,2.2433955669403076,0.07283641397953033
1783339084136669200,0.371669189453125,-0.1316140592098236,2.0272374153137207,0.5041559338569641
1783339084146641200,0.38164111328125,-0.5480834245681763,1.7475261688232422,0.9272560477256775
1783339084156614400,0.391614501953125,-0.9768750071525574,0.9964263439178467,1.2791860103607178
1783339084166587400,0.40158740234375,-1.2901661396026611,-0.3529297113418579,1.5659592151641846
1783339084176560000,0.41156005859375,-1.4770854711532593,-1.964349627494812,1.872574806213379
1783339084186533000,0.421533203125,-1.6214548349380493,-3.5520637035369873,2.2910075187683105
1783339084196506400,0.43150634765625,-1.8217642307281494,-4.723496913909912,2.7074809074401855
1783339084206478300,0.441478271484375,-2.2272486686706543,-4.721907138824463,2.737516164779663
1783339084216451000,0.451451171875,-2.5355312824249268,-4.793964862823486,3.162140130996704
1783339084226424300,0.46142431640625,-2.888190507888794,-3.6844286918640137,3.2114787101745605
1783339084236397300,0.471397216796875,-2.87790846824646,-3.4621922969818115,3.1505324840545654
1783339084246370300,0.481370361328125,-2.8420491218566895,-3.783714771270752,3.0185251235961914
1783339084256343300,0.49134326171875,-2.77034330368042,-3.9322714805603027,2.9120209217071533
1783339084266316300,0.50131640625,-2.3960440158843994,-3.4921586513519287,2.7620456218719482
1783339084276288300,0.511288330078125,-1.7236993312835693,-2.738887071609497,2.577911138534546
1783339084286261200,0.52126123046875,-0.8661760687828064,-2.18560528755188,2.350263833999634
1783339084296234500,0.531234375,-0.19377289712429047,-2.0261056423187256,2.0138192176818848
1783339084306207200,0.541207275390625,0.08219530433416367,-2.1727054119110107,1.5252032279968262
1783339084316180200,0.55118017578125,0.2572490870952606,-2.302126884460449,0.9836556911468506
1783339084326153200,0.5611533203125,0.6089120507240295,-2.514730453491211,0.47120198607444763
1783339084336125400,0.57112548828125,1.03803551197052,-2.676828384399414,0.0054664588533341885
1783339084346098200,0.58109814453125,1.389427661895752,-2.8672921657562256,-0.3882507383823395
1783339084356071200,0.5910712890625,1.6724965572357178,-3.3089675903320312,-0.66483473777771
1783339084366044200,0.601044189453125,1.9529467821121216,-3.898549795150757,-0.8115592002868652
1783339084376017400,0.611017333984375,2.1082475185394287,-4.498219013214111,-0.8402538895606995
1783339084385990100,0.620990234375,2.1265251636505127,-4.921828269958496,-0.8046982884407043
1783339084395963100,0.630963134765625,1.7987383604049683,-5.323737144470215,-0.6875583529472351
1783339084405935400,0.640935302734375,1.4252119064331055,-5.432515621185303,-0.4899350702762604
1783339084415908400,0.650908447265625,1.1592000722885132,-4.98163366317749,-0.27460575103759766
1783339084425881000,0.660881103515625,1.096895456314087,-4.047698020935059,-0.026547474786639214
1783339084435854000,0.67085400390625,1.305328369140625,-3.162670612335205,0.16324970126152039
1783339084445827300,0.680827392578125,1.716050148010254,-2.7204270362854004,0.12419018149375916
1783339084455800300,0.69080029296875,2.129803419113159,-2.725722074508667,-0.2267691045999527
1783339084465772000,0.70077197265625,2.4558401107788086,-2.937049388885498,-0.7893671989440918
1783339084475745300,0.710745361328125,2.65411114692688,-3.1446588039398193,-1.3339202404022217
1783339084485718300,0.72071826171875,2.7736504077911377,-3.332005262374878,-1.7391278743743896
1783339084495691300,0.730691162109375,2.9213969707489014,-3.518911600112915,-1.9784413576126099
1783339084505664300,0.740664306640625,3.052872657775879,-3.691838264465332,-2.1142477989196777
1783339084515637200,0.75063720703125,3.1041975021362305,-3.8538222312927246,-2.210421562194824
1783339084525610200,0.7606103515625,3.2212867736816406,-4.082973957061768,-2.1281402111053467
1783339084535582200,0.770582275390625,3.390252113342285,-4.302191257476807,-1.8632936477661133
1783339084545555500,0.780555419921875,3.4541804790496826,-4.621005058288574,-1.4694502353668213
1783339084555528200,0.790528076171875,3.506958484649658,-5.042053699493408,-1.0933732986450195
1783339084565501200,0.800501220703125,3.6869475841522217,-5.332541465759277,-0.8569204807281494
1783339084575474200,0.81047412109375,4.0116801261901855,-5.200160980224609,-0.6904373168945312
1783339084585447400,0.820447509765625,4.368869781494141,-4.683436870574951,-0.46048933267593384
1783339084595419100,0.830419189453125,4.655682563781738,-4.104457378387451,-0.1595226377248764
1783339084605392100,0.84039208984375,4.851292133331299,-3.8327653408050537,0.17053969204425812
1783339084615365000,0.850365234375,4.919548034667969,-3.873845338821411,0.5275499224662781
1783339084625338000,0.860338134765625,4.819157600402832,-4.11926794052124,0.9739886522293091
1783339084635311000,0.87031103515625,4.595992088317871,-4.340518951416016,1.4910480976104736
1783339084645284000,0.8802841796875,4.423268795013428,-4.3265557289123535,2.011479139328003
1783339084655257300,0.89025732421875,4.360787391662598,-3.9996402263641357,2.495356321334839
1783339084665229000,0.90022900390625,4.289206504821777,-3.5814547538757324,2.900460958480835
1783339084675202000,0.9102021484375,4.175507545471191,-3.1506383419036865,3.1773502826690674
1783339084685175300,0.92017529296875,3.9835715293884277,-2.6371850967407227,3.2845780849456787
1783339084695148300,0.930148193359375,3.7673733234405518,-2.1247806549072266,3.2053825855255127
1783339084705121000,0.94012109375,3.5993881225585938,-1.5599472522735596,2.948643445968628
1783339084715094000,0.950093994140625,3.536099910736084,-1.0124337673187256,2.608619213104248
1783339084725067300,0.9600673828125,3.5271174907684326,-0.6205158829689026,2.2356250286102295
1783339084735039200,0.970039306640625,3.5453574657440186,-0.49053049087524414,1.834230661392212
1783339084745012000,0.980011962890625,3.560394763946533,-0.6295797228813171,1.456602692604065
1783339084754985200,0.989985107421875,3.435340166091919,-0.8671070337295532,1.161908507347107
1783339084764958200,0.999958251953125,3.153681993484497,-1.139168620109558,1.0049912929534912
1783339084774931200,1.00993115234375,2.760127305984497,-1.3481842279434204,0.8935434222221375
1783339084784904200,1.019904296875,2.314851999282837,-1.2939960956573486,0.7100849151611328
1783339084794877000,1.029876953125,1.9381824731826782,-0.8071053624153137,0.42032021284103394
1783339084804849200,1.03984912109375,1.7287794351577759,0.030125897377729416,-0.04168497025966644
1783339084814822100,1.049822265625,1.662123441696167,0.9536651372909546,-0.556839644908905
1783339084824795100,1.059795166015625,1.6990212202072144,1.5337902307510376,-0.9138025641441345
1783339084834768100,1.06976806640625,1.811211347579956,1.6356003284454346,-0.8485163450241089
1783339084844741000,1.0797412109375,1.8102874755859375,0.9603747725486755,-0.38353267312049866
1783339084854714000,1.089714111328125,1.5441910028457642,-0.22720298171043396,0.38201969861984253
1783339084864687000,1.09968701171875,0.9644562602043152,-1.5603116750717163,1.2635509967803955
1783339084874660400,1.109660400390625,0.23372074961662292,-2.148395299911499,1.6216212511062622
1783339084884632000,1.119632080078125,-0.33828577399253845,-1.6724106073379517,1.0268313884735107
1783339084894605000,1.12960498046875,-0.9292760491371155,-0.7623150944709778,0.09069357812404633
1783339084904578300,1.139578369140625,-1.5407929420471191,0.06735861301422119,-0.7899008989334106
1783339084914551000,1.149551025390625,-1.5554029941558838,0.2539937496185303,-1.266149878501892
1783339084924524000,1.15952392578125,-1.646640419960022,0.24090512096881866,-1.3171602487564087
1783339084934497000,1.1694970703125,-1.5101076364517212,0.026150275021791458,-1.1495052576065063
1783339084944470300,1.17947021484375,-0.7337498068809509,-0.4642021059989929,-0.6992754340171814
1783339084954442000,1.18944189453125,0.0037171992007642984,-1.0892236232757568,-0.19419321417808533
1783339084964415000,1.1994150390625,0.35138756036758423,-1.6446048021316528,-0.010485432110726833
1783339084974388200,1.20938818359375,0.4237669110298157,-1.8258986473083496,-0.22267961502075195
1783339084984361200,1.219361328125,0.14384259283542633,-1.6792340278625488,-0.6696986556053162
1783339084994334200,1.229334228515625,-0.31004390120506287,-1.395885944366455,-1.0641711950302124
1783339085004307000,1.239306884765625,-0.7321234941482544,-0.6645284295082092,-1.3638758659362793
1783339085014280200,1.2492802734375,-1.1450570821762085,0.9106518626213074,-1.925619125366211
1783339085024253200,1.259253173828125,-1.763104796409607,2.228994607925415,-2.377295732498169
1783339085034225200,1.26922509765625,-1.9390907287597656,2.693807363510132,-2.1267495155334473
1783339085044198100,1.2791982421875,-1.7054777145385742,2.2638144493103027,-1.7388992309570312
1783339085054171100,1.289171142578125,-1.280417561531067,1.3401206731796265,-1.4195818901062012
1783339085064144100,1.29914404296875,-0.970338761806488,0.5147188901901245,-1.3233435153961182
1783339085074117000,1.3091171875,-0.7829378843307495,0.15161484479904175,-1.4014261960983276
1783339085084090000,1.319090087890625,-0.7314616441726685,-0.019516415894031525,-1.4046403169631958
1783339085094063000,1.32906298828125,-0.8594598174095154,-0.4372883141040802,-1.2414880990982056
1783339085104035000,1.33903515625,-1.1301630735397339,-1.024906039237976,-0.9056655764579773
1783339085114008000,1.349008056640625,-1.4249941110610962,-1.5766221284866333,-0.5342881083488464
1783339085123981300,1.358981201171875,-1.624656081199646,-1.9566890001296997,-0.278219074010849
1783339085133954000,1.3689541015625,-1.6479371786117554,-1.9818706512451172,-0.20149774849414825
1783339085143927000,1.378927001953125,-1.5090134143829346,-1.7148687839508057,-0.24422629177570343
1783339085153900000,1.388900146484375,-1.2086442708969116,-1.3817960023880005,-0.11716465651988983
1783339085163873300,1.398873291015625,-0.9833895564079285,-1.2374720573425293,0.17629198729991913
1783339085173846300,1.40884619140625,-0.8688417077064514,-1.3427748680114746,0.3853224515914917
1783339085183818000,1.41881787109375,-0.9226343631744385,-1.5436173677444458,0.5375785827636719
1783339085193791200,1.428791259765625,-0.9836119413375854,-1.6951402425765991,0.7162375450134277
1783339085203764200,1.43876416015625,-1.000033974647522,-1.6219482421875,0.7751410603523254
1783339085213737200,1.4487373046875,-1.2283648252487183,-1.4035764932632446,0.7540251612663269
1783339085223710000,1.4587099609375,-1.5182362794876099,-0.8173129558563232,0.7957574129104614
1783339085233683200,1.46868310546875,-1.689122200012207,0.4125782251358032,0.8734328746795654
1783339085243656200,1.47865625,-2.045703411102295,1.026562213897705,0.7553226947784424
1783339085253629200,1.488629150390625,-2.4423089027404785,2.128680944442749,0.754785418510437
1783339085263601200,1.49860107421875,-2.7473971843719482,2.9247829914093018,0.7809576392173767
1783339085273574100,1.50857421875,-2.7321791648864746,2.990450143814087,0.9729019999504089
1783339085283547100,1.518547119140625,-2.250070810317993,2.3102364540100098,1.2840378284454346
1783339085293520100,1.52852001953125,-1.4900636672973633,1.0779699087142944,1.7075488567352295
1783339085303493000,1.5384931640625,-0.9421705007553101,-2.092573642730713,2.007051467895508
1783339085313466000,1.548466064453125,-0.5224609971046448,-4.067038059234619,2.9378812313079834
1783339085323439000,1.558439208984375,-0.20435172319412231,-5.686289310455322,3.6530799865722656
1783339085333412000,1.568412109375,-0.04341729357838631,-7.476357460021973,3.3749547004699707
1783339085343384000,1.578384033203125,-0.10512060672044754,-8.827256202697754,2.2020621299743652
1783339085353357000,1.588357177734375,-0.17508359253406525,-7.749232292175293,0.7477141618728638
1783339085363330000,1.598330078125,-0.35627973079681396,-4.047604560852051,-0.27826517820358276
1783339085373303300,1.60830322265625,-0.39806386828422546,-0.9130244851112366,-1.1527093648910522
1783339085383276300,1.6182763671875,-0.1598004549741745,1.2773001194000244,-1.8322014808654785
1783339085393249000,1.6282490234375,0.31101661920547485,2.682877779006958,-2.688746213912964
1783339085403222000,1.638221923828125,0.572067379951477,3.4317538738250732,-3.451249361038208
1783339085413195000,1.648195068359375,0.5139333009719849,3.295031785964966,-3.515284299850464
1783339085423168300,1.658168212890625,0.2462773472070694,2.4102916717529297,-2.776378870010376
1783339085433140000,1.668139892578125,-0.029328670352697372,0.8214390277862549,-1.8261204957962036
1783339085443113200,1.67811328125,0.15751951932907104,0.37356218695640564,-0.8147194981575012
1783339085453086200,1.688086181640625,0.5736624002456665,0.6169154644012451,-0.2306506186723709
1783339085463059200,1.69805908203125,1.2414630651474,1.1933481693267822,0.07011348009109497
1783339085473032200,1.7080322265625,2.2359724044799805,1.629502773284912,0.16619111597537994
1783339085483005000,1.7180048828125,3.3526413440704346,1.7214409112930298,0.04556296020746231
1783339085492978200,1.727978271484375,4.408470630645752,1.5189158916473389,-0.15022337436676025
1783339085502951200,1.737951171875,5.372731685638428,1.0977058410644531,-0.17043010890483856
1783339085512924200,1.747924072265625,6.179415225982666,0.8602807521820068,-0.13395683467388153
1783339085522896100,1.757896240234375,6.997579097747803,0.9564741253852844,-0.07997508347034454
1783339085532869000,1.767869140625,7.817065238952637,0.9284019470214844,-0.013321664184331894
1783339085542842000,1.777842041015625,8.238326072692871,0.1476166546344757,0.016751816496253014
1783339085552815000,1.787815185546875,8.5100736618042,-0.06033669784665108,0.3285558819770813
1783339085562788400,1.797788330078125,8.759568214416504,0.22361379861831665,0.9690607786178589
1783339085572761000,1.807760986328125,8.99544620513916,0.5254940390586853,1.5863035917282104
1783339085582734000,1.817734130859375,9.174933433532715,0.692660927772522,1.9938048124313354
1783339085592707000,1.82770703125,9.270730972290039,0.7650442123413086,2.230056047439575
1783339085602680300,1.837680419921875,9.19476318359375,0.7325357794761658,2.307471990585327
1783339085612651800,1.84765185546875,8.873100280761719,1.105521321296692,2.14861798286438
1783339085622624800,1.857624755859375,8.383827209472656,1.701076865196228,1.8794195652008057
1783339085632597800,1.86759765625,7.883863925933838,1.7165791988372803,1.6795400381088257
1783339085642570800,1.87757080078125,7.369614124298096,0.545259952545166,1.8631330728530884
1783339085652543700,1.887543701171875,6.65476131439209,-0.568990170955658,1.980092167854309
1783339085662516700,1.897516845703125,5.744997024536133,-1.5845741033554077,1.9025726318359375
1783339085672490000,1.907489990234375,4.780318260192871,-2.3968148231506348,1.6717077493667603
1783339085682462700,1.917462646484375,3.8454835414886475,-2.7790067195892334,1.285219669342041
1783339085692435700,1.927435791015625,3.024641752243042,-2.532073736190796,0.6732466816902161
1783339085702408700,1.93740869140625,2.269771099090576,-1.9276893138885498,0.07226202636957169
1783339085712381000,1.947380859375,1.6511359214782715,-1.2631919384002686,-0.33681297302246094
1783339085722353700,1.957353759765625,1.180362582206726,-0.6578948497772217,-0.5282287001609802
1783339085732326700,1.96732666015625,1.0531377792358398,-0.018610242754220963,-0.590954065322876
1783339085742300000,1.9772998046875,1.1891920566558838,0.609575092792511,-0.6712014675140381
1783339085752273000,1.98727294921875,1.2590723037719727,0.7064689993858337,-0.5902998447418213
1783339085762246000,1.997245849609375,0.8480013608932495,0.13515222072601318,-0.22404463589191437
1783339085772218600,2.007218505859375,0.3972628116607666,-0.6268824338912964,0.2570798993110657
1783339085782191900,2.01719189453125,0.2044702023267746,-1.433205008506775,0.6017592549324036
1783339085792164900,2.027164794921875,-0.000172880245372653,-1.9867172241210938,0.7075904011726379
1783339085802137900,2.037137939453125,-0.20368792116641998,-2.2096662521362305,0.6566057801246643
1783339085812109800,2.04710986328125,-0.31566745042800903,-2.169609308242798,0.4864189624786377
1783339085822082800,2.057082763671875,-0.33174657821655273,-1.7369507551193237,0.21836407482624054
1783339085832055800,2.067055908203125,-0.290802538394928,-0.9504368901252747,-0.07633454352617264
1783339085842028800,2.07702880859375,-0.2609407603740692,0.06395979970693588,-0.3103768527507782
1783339085852001800,2.087001708984375,-0.29240384697914124,1.0046051740646362,-0.4528096616268158
1783339085861974800,2.096974853515625,-0.384625107049942,1.8232215642929077,-0.5296711921691895
1783339085871947800,2.10694775390625,-0.4630356431007385,2.567657232284546,-0.5367555022239685
1783339085881920800,2.116920654296875,-0.47258201241493225,2.9512622356414795,-0.4316330850124359
1783339085891893800,2.126893798828125,-0.4130684435367584,2.3968112468719482,-0.06608487665653229
1783339085901867000,2.136866943359375,-0.2630845308303833,1.3519752025604248,0.29916366934776306
1783339085911838700,2.146838623046875,-0.1412033587694168,0.42290663719177246,0.3661634027957916
1783339085921811700,2.156811767578125,-0.18033558130264282,-0.1326088011264801,-0.03775692731142044
1783339085931785000,2.166784912109375,-0.23148715496063232,-0.038324762135744095,-0.8768850564956665
1783339085941758000,2.176758056640625,-0.034550927579402924,0.19794875383377075,-1.4805984497070312
1783339085951730700,2.186730712890625,0.20132961869239807,-0.17850185930728912,-1.129878044128418
1783339085961703700,2.19670361328125,0.5051198601722717,-0.4282405972480774,-0.6045196652412415
1783339085971677000,2.206677001953125,0.6015082001686096,-0.7428736090660095,-0.16888315975666046
1783339085981650000,2.21664990234375,0.5542871356010437,-0.9172027707099915,0.05776330083608627
1783339085991622700,2.22662255859375,0.5323381423950195,-1.0640512704849243,0.12152089923620224
1783339086001595600,2.236595703125,0.5847361087799072,-1.1697310209274292,0.18023693561553955
1783339086011569000,2.24656884765625,0.6654988527297974,-1.1482329368591309,0.2010907232761383
1783339086021540900,2.256540771484375,0.5581236481666565,-1.0642338991165161,0.16369329392910004
1783339086031513600,2.266513671875,0.2984202206134796,-1.017121434211731,0.1303570717573166
1783339086041486800,2.27648681640625,0.05903451144695282,-0.9188006520271301,0.07639238238334656
1783339086051459800,2.2864599609375,-0.01494931522756815,-0.6870596408843994,0.062226589769124985
1783339086061432800,2.296432861328125,0.056658558547496796,-0.27465078234672546,0.06663759052753448
1783339086071405800,2.30640576171875,0.19126319885253906,0.23908154666423798,0.07182243466377258
1783339086081378800,2.31637890625,0.3226262629032135,0.672608494758606,0.07978875190019608
1783339086091351800,2.326351806640625,0.3609195053577423,0.906996488571167,0.11322640627622604
1783339086101324800,2.33632470703125,0.23569339513778687,1.0256242752075195,0.1545458883047104
1783339086111297800,2.3462978515625,0.09283429384231567,1.0975885391235352,0.17698290944099426
1783339086121270800,2.356270751953125,-0.032147329300642014,1.2181645631790161,0.1928606629371643
1783339086131242800,2.36624267578125,-0.10581550002098083,1.3514904975891113,0.22795754671096802
1783339086141215700,2.3762158203125,-0.15135689079761505,1.5229687690734863,0.2766188085079193
1783339086151188700,2.386188720703125,-0.18868982791900635,1.7288579940795898,0.30814191699028015
1783339086161162000,2.396161865234375,-0.2355569303035736,1.7681937217712402,0.3117334544658661
1783339086171134700,2.406134765625,-0.3458561301231384,1.5501112937927246,0.2601172924041748
1783339086181107700,2.416107666015625,-0.49163249135017395,1.1395418643951416,0.12707242369651794
1783339086191080700,2.426080810546875,-0.6298036575317383,0.6597185134887695,-0.042532965540885925
1783339086201054000,2.436053955078125,-0.7899749279022217,0.2055627405643463,-0.19692732393741608
1783339086211027000,2.44602685546875,-0.9520452618598938,-0.17026537656784058,-0.35748228430747986
1783339086220999700,2.455999755859375,-1.0814090967178345,-0.3883660137653351,-0.5114888548851013
1783339086230972700,2.46597265625,-1.1936190128326416,-0.3237434923648834,-0.6408439874649048
1783339086240945000,2.47594482421875,-1.336541771888733,0.06130165979266167,-0.7508916854858398
1783339086250918000,2.48591796875,-1.5198770761489868,0.5679000020027161,-0.8725225925445557
1783339086260890600,2.495890625,-1.6616020202636719,0.9012196660041809,-1.0621106624603271
1783339086270864000,2.50586376953125,-1.5924181938171387,0.9823284149169922,-1.3497438430786133
1783339086280836900,2.5158369140625,-1.2910237312316895,0.9101067185401917,-1.7425159215927124
1783339086290809900,2.525809814453125,-0.8516539931297302,0.6089282631874084,-2.126727342605591
1783339086300782800,2.535782958984375,-0.40126708149909973,0.0399809256196022,-2.2536749839782715
1783339086310755800,2.545755859375,-0.023837169632315636,-0.7044450640678406,-1.977062702178955
1783339086320728800,2.555728759765625,0.2598605751991272,-1.350352168083191,-1.39389967918396
1783339086330701800,2.565701904296875,0.4386320412158966,-1.7320913076400757,-0.6326932311058044
1783339086340674800,2.5756748046875,0.43982380628585815,-1.8207969665527344,0.2586537003517151
1783339086350647800,2.585647705078125,0.3481530547142029,-1.421315312385559,1.1904542446136475
1783339086360619800,2.595619873046875,0.35618993639945984,-0.3304736018180847,2.015963315963745
1783339086370592800,2.6055927734375,0.5335720181465149,1.0929975509643555,2.5472412109375
1783339086380565800,2.615565673828125,0.8958926796913147,2.082564115524292,2.7682015895843506
1783339086390538800,2.625538818359375,1.286494493484497,2.19512677192688,2.6676297187805176
1783339086400511700,2.63551171875,1.5337992906570435,1.6453797817230225,2.2243492603302
1783339086410484700,2.645484619140625,1.6912811994552612,0.9765211343765259,1.6184563636779785
1783339086420457700,2.655457763671875,1.7363780736923218,0.2279483824968338,1.0146591663360596
1783339086430431000,2.665430908203125,1.6131787300109863,-0.513205349445343,0.4595441222190857
1783339086440403700,2.67540380859375,1.3822340965270996,-1.1090024709701538,-0.06168392300605774
1783339086450376700,2.685376708984375,1.0935252904891968,-1.4847708940505981,-0.46655750274658203
1783339086460349700,2.695349609375,0.8217158317565918,-1.6099399328231812,-0.7206510305404663
1783339086470323000,2.705322998046875,0.6389942765235901,-1.4463800191879272,-0.83540940284729
1783339086480294700,2.715294677734375,0.5253907442092896,-1.0673682689666748,-0.8393932580947876
1783339086490267600,2.725267578125,0.4885176122188568,-0.5785465240478516,-0.780738890171051
1783339086500241000,2.735240966796875,0.5605174899101257,-0.023384489119052887,-0.7324336767196655
1783339086510214000,2.7452138671875,0.6650316715240479,0.5681810975074768,-0.7145304679870605
1783339086520187000,2.755186767578125,0.7063133716583252,1.0902676582336426,-0.6926904320716858
1783339086530159600,2.76515966796875,0.6417974829673767,1.4484492540359497,-0.5968800187110901
1783339086540132900,2.7751328125,0.5015509128570557,1.5402451753616333,-0.4017512798309326
1783339086550105900,2.78510595703125,0.3525397479534149,1.299410343170166,-0.10192985832691193
1783339086560078800,2.795078857421875,0.22861461341381073,0.9114300608634949,0.21687822043895721
1783339086570051800,2.8050517578125,0.12793774902820587,0.6589363813400269,0.44122499227523804
1783339086580024800,2.81502490234375,0.09027638286352158,0.48846712708473206,0.552631139755249
1783339086589997800,2.824997802734375,0.10976867377758026,0.29692840576171875,0.5849171876907349
1783339086599969800,2.8349697265625,0.14874564111232758,0.05335994437336922,0.5817230343818665
1783339086609942800,2.84494287109375,0.20198339223861694,-0.13982358574867249,0.5352301001548767
1783339086619915800,2.854915771484375,0.2562149465084076,-0.2267715334892273,0.45422661304473877
1783339086629888800,2.864888671875,0.2423243671655655,-0.23823373019695282,0.33591029047966003
1783339086639861500,2.874861572265625,0.14703699946403503,-0.1973147988319397,0.16289962828159332
1783339086649834800,2.884834716796875,0.028310934081673622,-0.11091522872447968,-0.07112320512533188
1783339086659807700,2.894807861328125,-0.07976201176643372,-0.06706655025482178,-0.35312825441360474
1783339086669780700,2.90478076171875,-0.19118906557559967,-0.07418391853570938,-0.614862859249115
1783339086679753700,2.914753662109375,-0.327353298664093,-0.014066526666283607,-0.7863704562187195
1783339086689726500,2.9247265625,-0.5366621017456055,0.07233180850744247,-0.881350576877594
1783339086699699700,2.93469970703125,-0.7844220995903015,0.1723865121603012,-0.9448579549789429
1783339086709672700,2.944672607421875,-1.0411022901535034,0.2614923417568207,-0.9216877818107605
1783339086719645700,2.954645751953125,-1.3072012662887573,0.31982141733169556,-0.8583359718322754
1783339086729617700,2.96461767578125,-1.641672968864441,0.3767826557159424,-0.7951424717903137
1783339086739590700,2.974590576171875,-1.9697463512420654,0.17060524225234985,-0.6358705759048462
1783339086749563600,2.984563720703125,-2.1527931690216064,-0.2856975495815277,-0.37125226855278015
1783339086759536600,2.99453662109375,-2.1803786754608154,-0.32599303126335144,-0.0822761207818985
1783339086769510000,3.004510009765625,-2.32993745803833,1.126781702041626,-0.2873058319091797
1783339086779482600,3.014482666015625,-2.432431936264038,2.324843406677246,-1.042367935180664
1783339086789455600,3.02445556640625,-1.9571171998977661,1.2579493522644043,-1.5756808519363403
1783339086799428600,3.0344287109375,-1.1325633525848389,-0.9611173272132874,-1.5791733264923096
1783339086809401900,3.04440185546875,-0.4679524898529053,-1.4973232746124268,-1.3544178009033203
1783339086819374600,3.05437451171875,-0.14920644462108612,-0.926019012928009,-0.9428512454032898
1783339086829347600,3.06434765625,0.033799558877944946,-0.5004076361656189,-0.4863237738609314
1783339086839320600,3.074320556640625,0.3313042223453522,-0.2751955986022949,-0.17338290810585022
1783339086849293800,3.0842939453125,0.7991465926170349,-0.37112894654273987,0.018378399312496185
1783339086859265500,3.094265625,1.1989549398422241,-0.5890495777130127,0.18832828104496002
1783339086869238500,3.104238525390625,1.5029658079147339,-0.5717853903770447,0.4757225811481476
1783339086879211800,3.114211669921875,1.660024642944336,-0.5165242552757263,0.7704870700836182
1783339086889184800,3.124184814453125,1.6374787092208862,-0.5531454682350159,0.9854061007499695
1783339086899157800,3.13415771484375,1.5316394567489624,-0.7406506538391113,1.1198948621749878
1783339086909130500,3.144130615234375,1.40955650806427,-0.9813846945762634,1.1794389486312866
1783339086919103700,3.154103759765625,1.2810972929000854,-1.1538183689117432,1.1605019569396973
1783339086929076700,3.16407666015625,1.1193675994873047,-1.2318576574325562,1.0478897094726562
1783339086939049700,3.1740498046875,0.9223209023475647,-1.1488045454025269,0.8451253175735474
1783339086949022700,3.184022705078125,0.7255309224128723,-0.89406818151474,0.5885353088378906
1783339086958995500,3.193995361328125,0.5797926783561707,-0.5715713500976562,0.2832970917224884
1783339086968968700,3.20396875,0.504734992980957,-0.26513031125068665,-0.07229383289813995
1783339086978941700,3.213941650390625,0.48448431491851807,-0.03167920559644699,-0.3899841904640198
1783339086988913700,3.22391357421875,0.4307080805301666,0.16317225992679596,-0.5490713119506836
1783339086998886700,3.23388671875,0.391712486743927,0.35245296359062195,-0.5209560990333557
1783339087008859600,3.243859619140625,0.3005850911140442,0.5232043266296387,-0.2994508147239685
1783339087018832600,3.25383251953125,0.24282564222812653,0.6350044012069702,0.02162039279937744
1783339087028805600,3.2638056640625,0.21303440630435944,0.5821789503097534,0.3609442710876465
1783339087038779000,3.27377880859375,0.22135519981384277,0.37513893842697144,0.6238104701042175
1783339087048751600,3.283751708984375,0.21781618893146515,0.09950433671474457,0.7720353603363037
1783339087058724600,3.293724609375,0.17026863992214203,-0.13352198898792267,0.7952935695648193
1783339087068697600,3.303697509765625,0.08321413397789001,-0.26478341221809387,0.6924002170562744
1783339087078670800,3.3136708984375,-0.014173666015267372,-0.29322198033332825,0.4674152731895447
1783339087088643800,3.323643798828125,-0.10412561148405075,-0.22311849892139435,0.16206349432468414
1783339087098616600,3.333616455078125,-0.19249889254570007,-0.07453089952468872,-0.1645071655511856
1783339087108589600,3.343589599609375,-0.2911738157272339,0.09701529145240784,-0.5122485756874084
1783339087118562800,3.353562744140625,-0.3955521583557129,0.18719951808452606,-0.8538690209388733
1783339087128534800,3.36353466796875,-0.5071293711662292,0.1710880547761917,-1.1297060251235962
1783339087138507500,3.373507568359375,-0.6678916215896606,0.06019376590847969,-1.2887070178985596
1783339087148480800,3.383480712890625,-0.8876410722732544,-0.20893023908138275,-1.3857197761535645
1783339087158453800,3.393453857421875,-1.1416082382202148,-0.674196183681488,-1.3966467380523682
1783339087168426800,3.4034267578125,-1.3792474269866943,-1.2924762964248657,-1.2809466123580933
1783339087178399500,3.4133994140625,-1.5603786706924438,-1.6915595531463623,-1.0740916728973389
1783339087188372700,3.423372802734375,-1.546015977859497,-1.5326204299926758,-0.7636429667472839
1783339087198345700,3.433345703125,-1.353775143623352,-0.8908851146697998,-0.37103763222694397
1783339087208318700,3.443318603515625,-1.1111403703689575,0.01448053028434515,-0.12151192873716354
1783339087218291700,3.453291748046875,-1.0432898998260498,1.1521143913269043,-0.312122106552124
1783339087228264400,3.463264404296875,-0.897843599319458,1.3161327838897705,-0.5076630711555481
1783339087238237700,3.47323779296875,-0.714576005935669,0.6169819235801697,-0.49326571822166443
1783339087248210700,3.483210693359375,-0.654817521572113,-0.26853418350219727,-0.3418017625808716
1783339087258183700,3.49318359375,-0.5045737028121948,-0.9375170469284058,-0.03225698322057724
1783339087268155600,3.50315576171875,-0.24653273820877075,-0.9342548251152039,0.4543362259864807
1783339087278128600,3.513128662109375,0.061223212629556656,-0.4870275557041168,0.7212880849838257
1783339087288101600,3.5231015625,0.4052126109600067,-0.18123996257781982,0.7154275178909302
1783339087298074600,3.53307470703125,0.7799877524375916,-0.030248312279582024,0.4485335350036621
1783339087308048000,3.5430478515625,1.1685805320739746,0.06031366437673569,0.0697064995765686
1783339087318020600,3.5530205078125,1.4577387571334839,0.02526193857192993,-0.18185275793075562
1783339087327993600,3.56299365234375,1.5536624193191528,-0.022330906242132187,-0.21601645648479462
1783339087337966600,3.572966552734375,1.4721609354019165,-0.13862527906894684,-0.09143112599849701
1783339087347939800,3.58293994140625,1.2802866697311401,-0.38128218054771423,0.13042321801185608
1783339087357912800,3.592912841796875,1.0770336389541626,-0.7126747965812683,0.38012173771858215
1783339087367885600,3.602885498046875,0.9250168800354004,-1.1093062162399292,0.6049665212631226
1783339087377858600,3.612858642578125,0.8339884281158447,-1.4488531351089478,0.8032900094985962
1783339087387831800,3.622831787109375,0.7898698449134827,-1.470036506652832,1.0482549667358398
1783339087397804800,3.6328046875,0.7945189476013184,-1.2490471601486206,1.2326765060424805
1783339087407777800,3.64277783203125,0.8852022290229797,-0.8443922996520996,1.313246726989746
1783339087417749800,3.652749755859375,0.9913475513458252,-0.3098202347755432,1.3273439407348633
1783339087427722800,3.66272265625,0.9831588864326477,0.26663050055503845,1.30721914768219
1783339087437695700,3.67269580078125,0.8633320927619934,0.8201243281364441,1.2475024461746216
1783339087447668700,3.682668701171875,0.6577380299568176,1.241187572479248,1.1303610801696777
1783339087457641700,3.692641845703125,0.4447117745876312,1.4357669353485107,1.004966378211975
1783339087467614700,3.70261474609375,0.23643873631954193,1.4705501794815063,0.9304940700531006
1783339087477587700,3.712587646484375,0.06536924839019775,1.4040169715881348,0.8809680342674255
1783339087487560700,3.722560791015625,-0.09976812452077866,1.2473156452178955,0.8110058903694153
1783339087497533400,3.732533447265625,-0.2772611379623413,1.1241143941879272,0.6978310942649841
1783339087507506700,3.742506591796875,-0.4666386842727661,1.0985106229782104,0.5240934491157532
1783339087517479700,3.752479736328125,-0.6156164407730103,1.015315055847168,0.2509939968585968
1783339087527452700,3.76245263671875,-0.6961930394172668,0.8596331477165222,-0.09063320606946945
1783339087537425700,3.77242578125,-0.7493438720703125,0.6689215302467346,-0.4249006509780884
1783339087547398700,3.782398681640625,-0.7661733627319336,0.4436086118221283,-0.7180410027503967
1783339087557371600,3.79237158203125,-0.7046721577644348,0.21624042093753815,-0.954201877117157
1783339087567343600,3.802343505859375,-0.7119379043579102,-0.01906721293926239,-1.1136112213134766
1783339087577316900,3.81231689453125,-0.6835927963256836,-0.44947370886802673,-1.3216938972473145
1783339087587289600,3.82228955078125,-0.6280572414398193,-1.0068109035491943,-1.5563023090362549
1783339087597262600,3.8322626953125,-0.6175952553749084,-1.5680774450302124,-1.7583929300308228
1783339087607235800,3.84223583984375,-0.5972741842269897,-2.037665605545044,-1.9274860620498657
1783339087617208800,3.852208740234375,-0.5756876468658447,-2.4173190593719482,-1.971030354499817
1783339087627182000,3.86218212890625,-0.5967580676078796,-2.672362804412842,-1.7640472650527954
1783339087637154800,3.87215478515625,-0.630433201789856,-2.6634020805358887,-1.323990821838379
1783339087647127800,3.8821279296875,-0.6468133926391602,-1.4077597856521606,-0.7903072237968445
1783339087657100800,3.892100830078125,-0.7011163234710693,0.6952131390571594,-0.42273375391960144
1783339087667074000,3.902073974609375,-0.7423816919326782,2.4794297218322754,-0.45790737867355347
1783339087677047000,3.912047119140625,-0.675082266330719,2.8820881843566895,-0.4392048120498657
1783339087687019800,3.922019775390625,-0.4564509689807892,1.8865551948547363,-0.14839375019073486
1783339087696992800,3.93199267578125,-0.10670015960931778,0.38677364587783813,0.3044559955596924
1783339087706966000,3.941966064453125,0.09626702964305878,-0.21287018060684204,0.7729125022888184
1783339087716939000,3.95193896484375,-0.07865338027477264,0.001088981982320547,1.264373779296875
1783339087726912000,3.961912109375,-0.3432961404323578,-0.036430854350328445,1.4466928243637085
1783339087736884000,3.971884033203125,-0.0597672201693058,-0.4288513660430908,1.3859964609146118
1783339087746857000,3.98185693359375,0.5395259857177734,-0.8052220344543457,1.0770037174224854
1783339087756830000,3.991829833984375,0.9989809393882751,-0.8808640837669373,0.614082932472229
1783339087766803000,4.001802978515625,1.2174663543701172,-0.8928786516189575,0.15623657405376434
1783339087776776000,4.01177587890625,1.2795438766479492,-1.0501424074172974,-0.22692333161830902
1783339087786749000,4.0217490234375,1.1965786218643188,-1.1939277648925781,-0.4753503203392029
1783339087796722000,4.031721923828125,1.0696548223495483,-1.3580466508865356,-0.5748241543769836
1783339087806695000,4.04169482421875,0.9739284515380859,-1.5218485593795776,-0.5834305286407471
1783339087816668200,4.051668212890625,0.9808388352394104,-1.6019710302352905,-0.5259525775909424
1783339087826641000,4.061640869140625,1.0265642404556274,-1.5559213161468506,-0.42885905504226685
1783339087836614000,4.07161376953125,1.0871388912200928,-1.4147580862045288,-0.2342080920934677
1783339087846587000,4.0815869140625,1.1128407716751099,-1.155596137046814,0.044869329780340195
1783339087856559900,4.091559814453125,1.093614101409912,-0.8028032779693604,0.318630576133728
1783339087866533000,4.101533203125,1.036712408065796,-0.4554080069065094,0.5564391613006592
1783339087876505900,4.111505859375,0.9625557661056519,-0.18672941625118256,0.7270178198814392
1783339087886478800,4.121478759765625,0.915630042552948,0.04374619945883751,0.8113806843757629
1783339087896451800,4.131451904296875,0.8904189467430115,0.3138860762119293,0.7927330136299133
1783339087906424000,4.141424072265625,0.8540835976600647,0.5504088997840881,0.718194305896759
1783339087916396800,4.151396728515625,0.7541841268539429,0.6463860273361206,0.67165207862854
1783339087926369800,4.161369873046875,0.5830284357070923,0.6526093482971191,0.6359543800354004
1783339087936343000,4.171343017578125,0.4324471950531006,0.6512287259101868,0.5793256759643555
1783339087946316000,4.18131591796875,0.30156004428863525,0.6681073904037476,0.5053310394287109
1783339087956288800,4.191288818359375,0.15944606065750122,0.7293981909751892,0.41789573431015015
1783339087966261800,4.20126171875,0.05152002349495888,0.7801666259765625,0.28730374574661255
1783339087976235000,4.211235107421875,-0.0023828893899917603,0.7821016311645508,0.1148616373538971
1783339087986208000,4.2212080078125,-0.027340169996023178,0.7378258109092712,-0.08921585977077484
1783339087996181000,4.231180908203125,-0.06868734210729599,0.6794533133506775,-0.29681459069252014
1783339088006153700,4.24115380859375,-0.15706494450569153,0.6014679670333862,-0.4946001470088959
1783339088016127000,4.251126953125,-0.2888903319835663,0.5007008910179138,-0.7038244605064392
1783339088026100000,4.261099853515625,-0.48398253321647644,0.3609689176082611,-0.9067031741142273
1783339088036073000,4.271072998046875,-0.7619702219963074,0.18279971182346344,-1.0974403619766235
1783339088046046000,4.2810458984375,-1.1109569072723389,-0.0031533362343907356,-1.285767674446106
1783339088056019000,4.29101904296875,-1.4632612466812134,-0.17583803832530975,-1.4497216939926147
1783339088065992000,4.300991943359375,-1.7926644086837769,-0.31145578622817993,-1.5323083400726318
1783339088075964000,4.3109638671875,-2.075521945953369,-0.3780640959739685,-1.4740105867385864
1783339088085937000,4.32093701171875,-2.2025671005249023,-0.3227952718734741,-1.2675738334655762
1783339088095910000,4.330909912109375,-2.1615986824035645,-0.05779370293021202,-0.9809794425964355
1783339088105883000,4.3408828125,-2.008498191833496,0.2851601839065552,-0.6442694067955017
1783339088115856000,4.35085595703125,-1.722937822341919,0.44697490334510803,-0.4002852439880371
1783339088125828900,4.360828857421875,-1.372707486152649,0.8693987727165222,-0.4383862018585205
1783339088135802000,4.370802001953125,-1.0655807256698608,1.8175737857818604,-0.8825609683990479
1783339088145774800,4.38077490234375,-0.6720908284187317,2.266744375228882,-1.3466991186141968
1783339088155747800,4.390747802734375,-0.0924127921462059,1.6622854471206665,-1.391577124595642
1783339088165720800,4.400720947265625,0.2767177224159241,0.49465546011924744,-0.9417760372161865
1783339088175694000,4.410694091796875,0.37000772356987,-0.3857453763484955,-0.15830251574516296
1783339088185667000,4.4206669921875,0.31001949310302734,-0.7937950491905212,0.6749830842018127
1783339088195639800,4.430639892578125,0.2888742685317993,-0.9056349992752075,1.3141926527023315
1783339088205612800,4.44061279296875,0.4906669855117798,-0.6113913059234619,1.6541504859924316
1783339088215586000,4.4505859375,0.9873667359352112,0.17232932150363922,1.7441104650497437
1783339088225559000,4.46055908203125,1.4850599765777588,1.031832218170166,1.7042731046676636
1783339088235532000,4.470531982421875,1.8032512664794922,1.3964892625808716,1.627639889717102
1783339088245504000,4.48050390625,1.8840619325637817,1.2678675651550293,1.5862077474594116
1783339088255477000,4.49047705078125,1.7633744478225708,0.8618462681770325,1.568997859954834
1783339088265450000,4.500449951171875,1.5911917686462402,0.33756697177886963,1.536696434020996
1783339088275422700,4.510422607421875,1.4492621421813965,-0.2235535830259323,1.4643197059631348
1783339088285396000,4.52039599609375,1.3158056735992432,-0.6878010034561157,1.3513579368591309
1783339088295369000,4.530368896484375,1.1458808183670044,-0.955344021320343,1.2322920560836792
1783339088305342000,4.540342041015625,0.9126907587051392,-1.0593287944793701,1.1048214435577393
1783339088315315000,4.55031494140625,0.6545822620391846,-0.9709895849227905,0.9191769957542419
1783339088325288000,4.560287841796875,0.4626065790653229,-0.7202549576759338,0.6734054684638977
1783339088335261000,4.570260986328125,0.3724929392337799,-0.4249279499053955,0.4139765799045563
1783339088345234000,4.58023388671875,0.3415317237377167,-0.1517108529806137,0.1636766791343689
1783339088355207000,4.59020703125,0.2921500504016876,0.05174108222126961,-0.05780244246125221
1783339088365180000,4.600179931640625,0.20948922634124756,0.21206842362880707,-0.24281105399131775
1783339088375153000,4.61015283203125,0.11619842052459717,0.3604714572429657,-0.35260438919067383
1783339088385126000,4.6201259765625,0.03420468047261238,0.5170335173606873,-0.3606838285923004
1783339088395099000,4.630098876953125,-0.011626987718045712,0.6606311202049255,-0.2863827049732208
1783339088405072000,4.64007177734375,-0.022117041051387787,0.7744073867797852,-0.15152984857559204
1783339088415045000,4.650045166015625,-0.0035625307355076075,0.7635882496833801,0.018270118162035942
1783339088425016800,4.660016845703125,0.007355315610766411,0.5504578351974487,0.19809673726558685
1783339088434989800,4.66998974609375,0.0011967552127316594,0.2767903506755829,0.36780238151550293
1783339088444963000,4.679963134765625,0.023866115137934685,0.1040143221616745,0.4831913113594055
1783339088454936000,4.68993603515625,0.0158233679831028,0.05953020974993706,0.517674446105957
1783339088464908800,4.69990869140625,-0.0329769067466259,0.10594739019870758,0.45483458042144775
1783339088474881800,4.7098818359375,-0.09769678115844727,0.24225276708602905,0.3004319667816162
1783339088484855000,4.71985498046875,-0.16780541837215424,0.4268384575843811,0.07708142697811127
1783339088494828000,4.729828125,-0.26031458377838135,0.612667977809906,-0.15745756030082703
1783339088504801000,4.739801025390625,-0.39811211824417114,0.7557685971260071,-0.38049963116645813
1783339088514773800,4.749773681640625,-0.5640294551849365,0.8179821372032166,-0.6015945076942444
1783339088524747000,4.7597470703125,-0.7685621976852417,0.796552836894989,-0.8024183511734009
1783339088534720000,4.769719970703125,-1.023719072341919,0.7507123947143555,-0.9521745443344116
1783339088544693000,4.77969287109375,-1.309990406036377,0.7491382360458374,-1.063981056213379
1783339088554666000,4.789666015625,-1.5981431007385254,0.6951596736907959,-1.1074364185333252
1783339088564639000,4.799638916015625,-1.7815076112747192,0.5011862516403198,-0.9970345497131348
1783339088574612000,4.809612060546875,-1.7495057582855225,0.2785941958427429,-0.6866812109947205
1783339088584585000,4.8195849609375,-1.583904504776001,0.3174697458744049,-0.2731635570526123
1783339088594558000,4.829557861328125,-1.587062120437622,0.9279956817626953,-0.2201133668422699
1783339088604530700,4.83953076171875,-1.6857264041900635,1.4979803562164307,-0.5238586664199829
1783339088614503200,4.849503173828125,-1.6174213886260986,1.1494154930114746,-0.6553918719291687
1783339088624476200,4.85947607421875,-1.2455474138259888,0.1608920693397522,-0.48081734776496887
1783339088634449200,4.86944921875,-0.6812773942947388,-0.35027453303337097,-0.1909562349319458
1783339088644422100,4.879422119140625,-0.08785310387611389,-0.15037329494953156,0.2255934327840805
1783339088654395100,4.88939501953125,0.22993816435337067,-0.07398664206266403,0.6641263365745544
1783339088664368000,4.8993681640625,0.37791338562965393,-0.47795501351356506,0.8366392850875854
1783339088674341000,4.909341064453125,0.6691875457763672,-0.8696857690811157,0.8753986358642578
1783339088684314400,4.919314453125,1.0153744220733643,-1.0963627099990845,0.8144871592521667
1783339088694287000,4.929287109375,1.2638214826583862,-1.2750962972640991,0.6798451542854309
1783339088704260000,4.939260009765625,1.4316922426223755,-1.5261274576187134,0.5251587629318237
1783339088714233000,4.949233154296875,1.5035568475723267,-1.8235455751419067,0.35399580001831055
1783339088724206300,4.959206298828125,1.4897925853729248,-2.092329502105713,0.19735582172870636
1783339088734179000,4.969178955078125,1.4215456247329712,-2.252859354019165,0.09683027863502502
1783339088744152000,4.979152099609375,1.2901222705841064,-2.3575258255004883,0.07232783734798431
1783339088754125000,4.989125,1.118704915046692,-2.465258836746216,0.1360442191362381
1783339088764098000,4.99909814453125,1.0053138732910156,-2.5010995864868164,0.2229529321193695
1783339088774071300,5.0090712890625,0.9522956609725952,-2.317061424255371,0.27009063959121704
1783339088784044000,5.0190439453125,0.9471467733383179,-1.9335891008377075,0.23274552822113037
1783339088794017000,5.02901708984375,0.963432252407074,-1.4297504425048828,0.12878477573394775
1783339088803989200,5.0389892578125,0.9643257260322571,-0.9667231440544128,0.016949672251939774
1783339088813962200,5.048962158203125,0.9309717416763306,-0.6112697124481201,-0.05179264023900032
1783339088823935000,5.05893505859375,0.8461210131645203,-0.3595280945301056,-0.05441384017467499
1783339088833908000,5.068907958984375,0.7106430530548096,-0.16823455691337585,-0.0028869996313005686
1783339088843881200,5.078881103515625,0.5475785732269287,0.03332816809415817,0.07717802375555038
1783339088853854200,5.088854248046875,0.39156609773635864,0.3143249452114105,0.1583581119775772
1783339088863827200,5.0988271484375,0.26883962750434875,0.6550471186637878,0.24309296905994415
1783339088873800000,5.108800048828125,0.16110891103744507,0.9301657676696777,0.3053451478481293
1783339088883773200,5.118773193359375,0.0979657992720604,0.999693751335144,0.30821797251701355
1783339088893746200,5.12874609375,0.09128738939762115,0.8903411626815796,0.23924210667610168
1783339088903719200,5.13871923828125,0.09181884676218033,0.7556270360946655,0.13686279952526093
1783339088913692200,5.148692138671875,0.06186601147055626,0.6753087639808655,0.0457448847591877
1783339088923665200,5.1586650390625,-0.019352564588189125,0.6611464619636536,-0.03213764354586601
1783339088933638100,5.16863818359375,-0.18471916019916534,0.7363247871398926,-0.11662217229604721
1783339088943611100,5.178611083984375,-0.40373584628105164,0.9062700867652893,-0.23364366590976715
1783339088953584000,5.188584228515625,-0.6108035445213318,1.0973018407821655,-0.3639582693576813
1783339088963557000,5.19855712890625,-0.8121063113212585,1.1957026720046997,-0.46486160159111023
1783339088973529000,5.208529052734375,-1.0469120740890503,1.1568596363067627,-0.5640280842781067
1783339088983502000,5.218502197265625,-1.2959158420562744,1.047814130783081,-0.7159386873245239
1783339088993475000,5.22847509765625,-1.538480520248413,0.9021095037460327,-0.8781344890594482
1783339089003448300,5.2384482421875,-1.726586103439331,0.6610239744186401,-1.0275160074234009
1783339089013421000,5.248421142578125,-1.8128725290298462,0.40956351161003113,-1.1525343656539917
1783339089023394000,5.25839404296875,-1.757927417755127,0.21457256376743317,-1.1963001489639282
1783339089033367000,5.268366943359375,-1.565659999847412,0.06995625793933868,-1.0544116497039795
1783339089043340300,5.27834033203125,-1.3370147943496704,0.05594254285097122,-0.6983059048652649
1783339089053313000,5.28831298828125,-1.2016806602478027,0.49099200963974,-0.3912980258464813
1783339089063286000,5.2982861328125,-1.2362523078918457,1.3375025987625122,-0.552145779132843
1783339089073259000,5.308259033203125,-1.2066246271133423,1.9684333801269531,-1.11066734790802
1783339089083232300,5.318232177734375,-0.8178344964981079,1.721143364906311,-1.3222497701644897
1783339089093205200,5.328205322265625,-0.1351616531610489,0.570192813873291,-0.8942944407463074
1783339089103178000,5.338177978515625,0.5659523606300354,-0.8095842599868774,-0.07855181396007538
1783339089113151000,5.34815087890625,1.0198746919631958,-1.7284421920776367,0.8249375820159912
1783339089123124200,5.358124267578125,1.0327789783477783,-1.7613210678100586,1.648374080657959
1783339089133097200,5.36809716796875,0.7398061752319336,-0.56806480884552,2.059828281402588
1783339089143070200,5.3780703125,0.6318750977516174,0.6045578718185425,1.987862467765808
1783339089153043000,5.38804296875,0.9194037914276123,0.6517384648323059,1.5185078382492065
1783339089163016200,5.39801611328125,1.2830413579940796,0.03576245531439781,0.840631365776062
1783339089172988200,5.40798828125,1.5066579580307007,-0.5886750221252441,0.20368285477161407
1783339089182961200,5.417961181640625,1.6484705209732056,-1.1169260740280151,-0.1887778341770172
1783339089192934100,5.42793408203125,1.6382652521133423,-1.5861939191818237,-0.390298992395401
1783339089202907100,5.4379072265625,1.5337750911712646,-2.007368326187134,-0.4356990456581116
1783339089212880100,5.447880126953125,1.3557538986206055,-2.3109970092773438,-0.3602173328399658
1783339089222853000,5.45785302734375,1.135145902633667,-2.555967330932617,-0.17687523365020752
1783339089232826000,5.467826171875,0.9611144065856934,-2.6300482749938965,0.04059504345059395
1783339089242799000,5.477799072265625,0.8780098557472229,-2.432772636413574,0.19894546270370483
1783339089252772000,5.487772216796875,0.8733623623847961,-1.9493004083633423,0.23675408959388733
1783339089262745000,5.4977451171875,0.9325778484344482,-1.2243069410324097,0.20571398735046387
1783339089272718000,5.507718017578125,0.9860624074935913,-0.46821004152297974,0.1711789071559906
1783339089282691300,5.51769140625,0.9244764447212219,0.13936005532741547,0.2152966856956482
1783339089292664000,5.5276640625,0.7655856013298035,0.5518171191215515,0.34668001532554626
1783339089302637000,5.537636962890625,0.5596686601638794,0.8018664121627808,0.5250681042671204
1783339089312610000,5.547610107421875,0.3448963761329651,0.9475045800209045,0.715859055519104
1783339089322583300,5.557583251953125,0.16606168448925018,0.9996514916419983,0.8707761764526367
1783339089332556300,5.567556396484375,0.05261741578578949,0.9404845833778381,0.9324398040771484
1783339089342529000,5.577529052734375,-0.011165602132678032,0.791689932346344,0.8773601055145264
1783339089352501200,5.587501220703125,-0.04125425964593887,0.6240588426589966,0.7414645552635193
1783339089362474200,5.59747412109375,-0.060628410428762436,0.4593347907066345,0.6056147813796997
1783339089372447200,5.607447265625,-0.07835627347230911,0.2934075891971588,0.4797151982784271
1783339089382420000,5.617419921875,-0.11122830212116241,0.19197706878185272,0.3311515152454376
1783339089392393200,5.627393310546875,-0.1641455739736557,0.19475261867046356,0.14243780076503754
1783339089402366200,5.6373662109375,-0.2484176605939865,0.2609650790691376,-0.06503082811832428
1783339089412339200,5.647339111328125,-0.36770492792129517,0.3631548583507538,-0.24765975773334503
1783339089422312000,5.65731201171875,-0.5428745746612549,0.4723111093044281,-0.40271812677383423
1783339089432285200,5.66728515625,-0.7562656998634338,0.5315893292427063,-0.5711678862571716
1783339089442258200,5.677258056640625,-0.9933497309684753,0.588138222694397,-0.7484515905380249
1783339089452231200,5.687231201171875,-1.2803086042404175,0.6942707896232605,-0.9119486808776855
1783339089462204200,5.6972041015625,-1.60560142993927,0.9029499292373657,-1.0553258657455444
1783339089472177200,5.70717724609375,-1.9689180850982666,1.2134521007537842,-1.16143798828125
1783339089482150100,5.717150146484375,-2.353236436843872,1.5379204750061035,-1.211185097694397
1783339089492123100,5.727123046875,-2.6608989238739014,1.694483757019043,-1.1976059675216675
1783339089502096100,5.73709619140625,-2.725238561630249,1.5211824178695679,-1.0656840801239014
1783339089512069000,5.747069091796875,-2.5744590759277344,1.0679419040679932,-0.6967393159866333
1783339089522042000,5.7570419921875,-2.3187615871429443,1.4176137447357178,-0.417183518409729
1783339089532014000,5.76701416015625,-1.8609189987182617,1.8616812229156494,-0.6911399364471436
1783339089541987000,5.776987060546875,-1.1340131759643555,1.10373854637146,-1.2960299253463745
1783339089551960300,5.786960205078125,-0.25949129462242126,-0.0967305600643158,-1.8956995010375977
1783339089561933000,5.79693310546875,0.6237998604774475,-1.1928198337554932,-2.0686254501342773
1783339089571906000,5.806906005859375,1.4313206672668457,-1.7146327495574951,-1.7418733835220337
1783339089581879000,5.816879150390625,1.8936947584152222,-1.6250596046447754,-1.0655423402786255
1783339089591852300,5.826852294921875,2.0024561882019043,-1.664618730545044,-0.3180435597896576
1783339089601825300,5.8368251953125,2.06681489944458,-1.6265844106674194,0.3503303825855255
1783339089611798500,5.846798583984375,1.8847461938858032,-0.8078007698059082,0.8830534815788269
1783339089621771500,5.856771484375,1.3618946075439453,0.018103627488017082,1.3740965127944946
1783339089631744500,5.86674462890625,0.9483208656311035,0.11621502041816711,1.6741279363632202
1783339089641717800,5.8767177734375,0.9097342491149902,-0.3032654821872711,1.7236827611923218
1783339089651690800,5.886690673828125,1.020949125289917,-0.9548128843307495,1.6091740131378174
1783339089661663500,5.89666357421875,1.108755111694336,-1.5114976167678833,1.3676198720932007
1783339089671636500,5.906636474609375,1.1537140607833862,-1.8923062086105347,1.1081818342208862
1783339089681609700,5.916609619140625,1.1145124435424805,-2.2052745819091797,0.906575083732605
1783339089691582700,5.926582763671875,1.0765302181243896,-2.4971513748168945,0.7267435193061829
1783339089701555700,5.9365556640625,1.0514241456985474,-2.6327967643737793,0.5417365431785583
1783339089711527700,5.946527587890625,1.03948175907135,-2.4598324298858643,0.330124169588089
1783339089721500700,5.956500732421875,1.0594556331634521,-2.1018338203430176,0.07400179654359818
1783339089731473700,5.9664736328125,1.0994573831558228,-1.7535158395767212,-0.21155032515525818
1783339089741446700,5.97644677734375,1.0990029573440552,-1.3764569759368896,-0.4057750105857849
1783339089751419600,5.986419677734375,1.049545407295227,-1.0211156606674194,-0.45220693945884705
1783339089761392600,5.996392578125,0.9332013130187988,-0.7806073427200317,-0.3964584171772003
1783339089771365600,6.00636572265625,0.7799432873725891,-0.6057846546173096,-0.2889189124107361
1783339089781338600,6.016338623046875,0.6031238436698914,-0.40695545077323914,-0.13257922232151031
1783339089791311600,6.0263115234375,0.43091875314712524,-0.14810018241405487,0.07224714756011963
1783339089801284600,6.03628466796875,0.2758179008960724,0.1511528193950653,0.28399938344955444
1783339089811257600,6.046257568359375,0.15126721560955048,0.4194774627685547,0.4405250549316406
1783339089821230600,6.056230712890625,0.05268676206469536,0.673975944519043,0.5064330101013184
1783339089831203600,6.06620361328125,-0.02883632481098175,0.9387657642364502,0.5095806121826172
1783339089841176800,6.0761767578125,-0.10070892423391342,1.243819236755371,0.4666479229927063
1783339089851149600,6.086149658203125,-0.12293992936611176,1.5843008756637573,0.3630613386631012
1783339089861122600,6.09612255859375,-0.10583503544330597,1.8909615278244019,0.1738559454679489
1783339089871095600,6.106095458984375,-0.17646899819374084,1.9889624118804932,-0.08016622066497803
1783339089881068800,6.11606884765625,-0.2871086299419403,1.8094080686569214,-0.3289583921432495
1783339089891040500,6.12604052734375,-0.4075697958469391,1.4562827348709106,-0.518022358417511
1783339089901013500,6.136013427734375,-0.5448628664016724,0.9870964288711548,-0.686387300491333
1783339089910986800,6.14598681640625,-0.7401465773582458,0.5874637961387634,-0.8792963027954102
1783339089920959700,6.155959716796875,-0.9744512438774109,0.4229277968406677,-1.0746480226516724
1783339089930932500,6.165932373046875,-1.1975919008255005,0.39043989777565,-1.2159332036972046
1783339089940905500,6.175905517578125,-1.3866190910339355,0.409572958946228,-1.2659239768981934
1783339089950878700,6.185878662109375,-1.50486421585083,0.4874770939350128,-1.2419451475143433
1783339089960851700,6.195851806640625,-1.528308629989624,0.5597869753837585,-1.1263539791107178
1783339089970824700,6.20582470703125,-1.4372451305389404,0.5399078130722046,-0.8472349643707275
1783339089980797400,6.21579736328125,-1.180503249168396,0.43126264214515686,-0.5732707381248474
1783339089990770700,6.225770751953125,-0.8579408526420593,0.350066602230072,-0.559180498123169
1783339090000743700,6.23574365234375,-0.6825332641601562,0.5940882563591003,-0.8499593138694763
1783339090010716700,6.245716552734375,-0.587445080280304,1.124078631401062,-1.162977695465088
1783339090020689700,6.255689697265625,-0.3765418827533722,1.6531963348388672,-1.1980565786361694
1783339090030662700,6.26566259765625,0.02291841432452202,1.6323970556259155,-0.7277114391326904
1783339090040635600,6.2756357421875,0.39819538593292236,0.6590994596481323,0.16567876935005188
1783339090050608600,6.285608642578125,0.44740766286849976,-0.473251074552536,1.1000539064407349
1783339090060581600,6.29558154296875,0.09049946814775467,-0.5557053089141846,1.4815882444381714
1783339090070553600,6.3055537109375,-0.3346100151538849,0.01102099847048521,1.130732774734497
1783339090080526600,6.315526611328125,-0.2673799693584442,-0.12901394069194794,0.521827757358551
1783339090090499600,6.32549951171875,0.19059741497039795,-0.7023177146911621,0.027619898319244385
1783339090100472600,6.33547265625,0.715437650680542,-1.2027108669281006,-0.18378381431102753
1783339090110445800,6.34544580078125,1.095438003540039,-1.538984775543213,-0.11247341334819794
1783339090120418600,6.35541845703125,1.132041096687317,-1.7748271226882935,0.04581744596362114
1783339090130391600,6.3653916015625,0.9074243903160095,-1.9087375402450562,0.16906055808067322
1783339090140364500,6.375364501953125,0.5866283178329468,-1.97040855884552,0.251633882522583
1783339090150337800,6.385337890625,0.31253790855407715,-2.141172409057617,0.3492906391620636
1783339090160310800,6.395310791015625,0.2986770272254944,-2.3601768016815186,0.46379268169403076
1783339090170283500,6.405283447265625,0.4283585846424103,-2.3566226959228516,0.4915468096733093
1783339090180256500,6.415256591796875,0.6131318807601929,-2.019258737564087,0.4058595299720764
1783339090190229800,6.425229736328125,0.7798020839691162,-1.5715116262435913,0.23517143726348877
1783339090200202800,6.43520263671875,0.8585286140441895,-1.1877492666244507,0.0614616721868515
1783339090210175700,6.44517578125,0.8585547208786011,-0.8697603940963745,-0.004217470530420542
1783339090220148500,6.4551484375,0.8184338808059692,-0.6840649247169495,0.053896088153123856
1783339090230121700,6.465121826171875,0.7391643524169922,-0.5538195967674255,0.19065554440021515
1783339090240093700,6.47509375,0.6293403506278992,-0.4607996344566345,0.3445798456668854
1783339090250066400,6.48506640625,0.5113437175750732,-0.3950597643852234,0.4706834554672241
1783339090260039700,6.495039794921875,0.39703086018562317,-0.3627701997756958,0.5409293174743652
1783339090270012700,6.5050126953125,0.28903061151504517,-0.3350496292114258,0.5529886484146118
1783339090279985700,6.514985595703125,0.19757351279258728,-0.26493439078330994,0.5239426493644714
1783339090289958700,6.524958740234375,0.13462649285793304,-0.1344245970249176,0.4834686815738678
1783339090299931600,6.534931640625,0.09930549561977386,0.020991751924157143,0.44915804266929626
1783339090309904600,6.544904541015625,0.09307157248258591,0.1735655814409256,0.41347169876098633
1783339090319877600,6.554877685546875,0.10904370248317719,0.3225437104701996,0.35074904561042786
1783339090329850600,6.5648505859375,0.12087079882621765,0.4641607701778412,0.2331571727991104
1783339090339823600,6.57482373046875,0.07388146221637726,0.576602578163147,0.0782599002122879
1783339090349796600,6.584796630859375,-0.0009914468973875046,0.6627944111824036,-0.09806159883737564
1783339090359769600,6.59476953125,-0.0799197256565094,0.7276043891906738,-0.27828165888786316
1783339090369742600,6.60474267578125,-0.14329762756824493,0.7419745326042175,-0.4401041269302368
1783339090379715600,6.614715576171875,-0.18163102865219116,0.6982153654098511,-0.5722854137420654
1783339090389688800,6.624688720703125,-0.19108471274375916,0.6126043796539307,-0.6699680685997009
1783339090399661600,6.63466162109375,-0.22958412766456604,0.5190384387969971,-0.73957359790802
1783339090409633500,6.644633544921875,-0.2950126826763153,0.45084601640701294,-0.7730452418327332
1783339090419606800,6.654606689453125,-0.3940746784210205,0.43340879678726196,-0.7614707350730896
1783339090429579800,6.664579833984375,-0.5245816111564636,0.5034565925598145,-0.7360700368881226
1783339090439552500,6.674552490234375,-0.7203229665756226,0.783376932144165,-0.7442771792411804
1783339090449525500,6.684525390625,-1.0117775201797485,1.4578006267547607,-0.822096049785614
1783339090459498800,6.694498779296875,-1.433672308921814,2.7490079402923584,-0.8775849938392639
1783339090469471700,6.7044716796875,-1.9466089010238647,3.138181447982788,-0.4489409625530243
1783339090479444700,6.71444482421875,-2.312584161758423,2.7013332843780518,0.08820150047540665
1783339090489417500,6.72441748046875,-2.246486186981201,2.2552053928375244,0.5766414403915405
1783339090499390700,6.734390625,-1.711037278175354,2.161881446838379,1.0431108474731445
1783339090509363700,6.74436376953125,-0.7689585089683533,1.8695948123931885,1.1093961000442505
1783339090519336700,6.754336669921875,0.1880316436290741,1.374808430671692,0.5194476842880249
1783339090529309700,6.764309814453125,0.691368818283081,0.8578765392303467,-0.4429612159729004
1783339090539282700,6.77428271484375,0.8021302819252014,0.05775206536054611,-0.8663362264633179
1783339090549255700,6.784255615234375,1.0649245977401733,-0.6983590722084045,-0.6949090957641602
1783339090559228700,6.794228759765625,1.3849611282348633,-0.7319763898849487,-0.3967371881008148
1783339090569201700,6.80420166015625,1.6664167642593384,-0.7543357610702515,-0.07594293355941772
1783339090579174400,6.81417431640625,1.890456199645996,-1.0533506870269775,0.24632371962070465
1783339090589146600,6.824146728515625,1.9472064971923828,-1.3521184921264648,0.49785077571868896
1783339090599119600,6.83411962890625,1.818933129310608,-1.4554851055145264,0.7150724530220032
1783339090609092600,6.844092529296875,1.5749033689498901,-1.4903264045715332,0.9597834348678589
1783339090619065300,6.8540654296875,1.2508727312088013,-1.5849027633666992,1.2046451568603516
1783339090629038300,6.864038330078125,0.8771089315414429,-1.6941461563110352,1.4015250205993652
1783339090639011300,6.87401123046875,0.592108428478241,-1.769818902015686,1.4716829061508179
1783339090648984300,6.883984375,0.47676560282707214,-1.7164560556411743,1.3801686763763428
1783339090658957300,6.893957275390625,0.4060378074645996,-1.4449453353881836,1.1268812417984009
1783339090668930300,6.903930419921875,0.32731902599334717,-0.978881299495697,0.7782188653945923
1783339090678903300,6.9139033203125,0.2954224646091461,-0.5768803358078003,0.36888670921325684
1783339090688876300,6.923876220703125,0.28578370809555054,-0.4494486153125763,-0.07447049766778946
1783339090698849300,6.933849365234375,0.25198236107826233,-0.5735918283462524,-0.46390512585639954
1783339090708822300,6.943822265625,0.16795110702514648,-0.8013863563537598,-0.7709380388259888
1783339090718795300,6.953795166015625,-0.009047694504261017,-0.8726003170013428,-0.9236005544662476
1783339090728768300,6.963768310546875,-0.17024829983711243,-0.7387477159500122,-0.873428225517273
1783339090738741500,6.973741455078125,-0.3018900156021118,-0.44877761602401733,-0.6539536714553833
1783339090748714200,6.98371435546875,-0.3521731495857239,-0.1284422129392624,-0.33484283089637756
1783339090758686200,6.993686279296875,-0.27246230840682983,0.08433205634355545,0.0028519234620034695
1783339090768659500,7.003659423828125,-0.12602758407592773,0.10941264033317566,0.2927761375904083
1783339090778632400,7.013632568359375,0.00501486100256443,-0.02702775038778782,0.4982592761516571
1783339090788605200,7.023605224609375,0.07888268679380417,-0.19521649181842804,0.6052408218383789
1783339090798578200,7.033578125,0.11400005966424942,-0.2560890316963196,0.6135967969894409
1783339090808551400,7.043551513671875,0.13655675947666168,-0.18241427838802338,0.5343707203865051
1783339090818524400,7.0535244140625,0.14736515283584595,0.016372088342905045,0.37330982089042664
1783339090828497400,7.063497314453125,0.1417916864156723,0.2741490304470062,0.18137101829051971
1783339090838470100,7.07347021484375,0.06926143169403076,0.5109106302261353,-0.01472899504005909
1783339090848443400,7.083443359375,-0.06290938705205917,0.6677473783493042,-0.19535629451274872
1783339090858416400,7.09341650390625,-0.22969646751880646,0.7382476329803467,-0.35842734575271606
1783339090868389400,7.103389404296875,-0.4102768898010254,0.8049859404563904,-0.5147466659545898
1783339090878362400,7.1133623046875,-0.5917714238166809,1.041161298751831,-0.6659036874771118
1783339090888335000,7.123335205078125,-0.7642571926116943,1.450685739517212,-0.8409926295280457
1783339090898308400,7.133308349609375,-0.9396052956581116,1.9118015766143799,-0.9970757365226746
1783339090908281300,7.14328125,-1.140068531036377,2.2393856048583984,-1.0310287475585938
1783339090918253000,7.153253173828125,-1.3422378301620483,2.275131940841675,-0.8637962937355042
1783339090928226300,7.163226318359375,-1.4493427276611328,1.9487278461456299,-0.5404504537582397
1783339090938199300,7.17319921875,-1.4876673221588135,1.7934105396270752,-0.13680429756641388
1783339090948172300,7.18317236328125,-1.4957444667816162,2.106048822402954,0.2441079020500183
1783339090958145300,7.193145263671875,-1.4078054428100586,2.1984636783599854,0.44814470410346985
1783339090968118300,7.2031181640625,-1.0915553569793701,1.4925081729888916,0.39291447401046753
1783339090978091300,7.21309130859375,-0.5593541860580444,0.6428845524787903,0.1318766176700592
1783339090988064300,7.223064208984375,-0.06729630380868912,0.45821914076805115,-0.24685631692409515
1783339090998037200,7.233037353515625,0.23904132843017578,0.6164397597312927,-0.5158010721206665
1783339091008010500,7.243010498046875,0.3868750035762787,0.15687723457813263,-0.5869298577308655
1783339091017983200,7.252983154296875,0.5888878107070923,-0.47597017884254456,-0.451156884431839
1783339091027956200,7.262956298828125,0.6255273222923279,-0.7230800986289978,-0.15681979060173035
1783339091037929200,7.27292919921875,0.5557193756103516,-0.749945878982544,0.191276416182518
1783339091047902500,7.28290234375,0.6364384889602661,-0.7628284096717834,0.4527738094329834
1783339091057875500,7.29287548828125,0.8468065857887268,-0.9008197784423828,0.6114568710327148
1783339091067848200,7.30284814453125,1.0496289730072021,-1.1081806421279907,0.6608494520187378
1783339091077821200,7.3128212890625,1.2036956548690796,-1.2242761850357056,0.6118695139884949
1783339091087794200,7.322794189453125,1.2517499923706055,-1.2338361740112305,0.4849003851413727
1783339091097766400,7.332766357421875,1.1639255285263062,-1.3070875406265259,0.36508601903915405
1783339091107739100,7.3427392578125,0.9519351720809937,-1.5333338975906372,0.27723073959350586
1783339091117712400,7.35271240234375,0.636132538318634,-1.7937697172164917,0.15466976165771484
1783339091127685400,7.362685302734375,0.3938836455345154,-1.974806308746338,-0.03458350896835327
1783339091137658400,7.372658447265625,0.38376426696777344,-2.026437997817993,-0.27402278780937195
1783339091147631400,7.38263134765625,0.5317116379737854,-1.8912591934204102,-0.5509697198867798
1783339091157604000,7.39260400390625,0.7134472131729126,-1.504002571105957,-0.7624636888504028
1783339091167577300,7.402577392578125,0.8468585014343262,-1.019257664680481,-0.8109377026557922
1783339091177550300,7.41255029296875,0.8786553144454956,-0.6045563220977783,-0.7009931802749634
1783339091187523300,7.4225234375,0.8202362060546875,-0.2837359309196472,-0.46545735001564026
1783339091197496300,7.432496337890625,0.6902521252632141,-0.028610916808247566,-0.17242750525474548
1783339091207469300,7.44246923828125,0.5337074995040894,0.21539881825447083,0.11879128217697144
1783339091217442300,7.4524423828125,0.36419448256492615,0.4800667464733124,0.40675970911979675
1783339091227415300,7.462415283203125,0.20576539635658264,0.6752849817276001,0.6668730974197388
1783339091237388300,7.47238818359375,0.05182234197854996,0.7231621742248535,0.8620585203170776
1783339091247361300,7.482361328125,-0.09052655100822449,0.6439035534858704,0.9566172361373901
1783339091257334300,7.492334228515625,-0.20452655851840973,0.5155376195907593,0.9372516870498657
1783339091267306200,7.50230615234375,-0.3015343248844147,0.4720498025417328,0.8088814616203308
1783339091277279500,7.512279541015625,-0.4168694019317627,0.5972288250923157,0.5624933838844299
1783339091287252200,7.522252197265625,-0.583318829536438,0.8144811987876892,0.2097393125295639
1783339091297225200,7.53222509765625,-0.7772956490516663,1.0615195035934448,-0.2033894807100296
1783339091307198200,7.5421982421875,-0.9460769295692444,1.3411364555358887,-0.605840265750885
1783339091317171500,7.55217138671875,-1.0720559358596802,1.560418725013733,-0.9538984894752502
1783339091327144400,7.56214453125,-1.1757022142410278,1.6340540647506714,-1.2180067300796509
1783339091337117200,7.5721171875,-1.281532883644104,1.5673056840896606,-1.3782819509506226
1783339091347090200,7.582090087890625,-1.3647303581237793,1.4356560707092285,-1.4279334545135498
1783339091357063200,7.592063232421875,-1.3913366794586182,1.3235265016555786,-1.3864318132400513
1783339091367036400,7.602036376953125,-1.3747625350952148,1.3115277290344238,-1.2833614349365234
1783339091377009400,7.612009521484375,-1.313054084777832,1.386549711227417,-1.1912680864334106
1783339091386982100,7.621982177734375,-1.2400168180465698,1.2420101165771484,-1.102901816368103
1783339091396955100,7.631955078125,-1.1490020751953125,0.7004756331443787,-1.0368354320526123
1783339091406928400,7.641928466796875,-1.0435396432876587,0.21097247302532196,-1.1515567302703857
1783339091416901400,7.6519013671875,-0.8320720791816711,0.15457311272621155,-1.4554129838943481
1783339091426874400,7.661874267578125,-0.4102790355682373,0.2449008822441101,-1.6777079105377197
1783339091436846300,7.671846435546875,0.2305145412683487,0.35972240567207336,-1.571868896484375
1783339091446819300,7.6818193359375,0.9536831378936768,-0.032397158443927765,-0.9353935122489929
1783339091456792300,7.691792236328125,1.264441967010498,-0.8515132665634155,0.04532715678215027
1783339091466765300,7.701765380859375,1.1612316370010376,-0.9541834592819214,0.7579174041748047
1783339091476738300,7.71173828125,0.9610604643821716,-0.05306456983089447,1.0055994987487793
1783339091486711300,7.721711181640625,0.805698037147522,0.3784034848213196,0.9851818680763245
1783339091496684300,7.731684326171875,0.8313598036766052,-0.047885533422231674,0.9333828091621399
1783339091506657300,7.7416572265625,1.0277773141860962,-0.7816029191017151,0.8918843865394592
1783339091516630500,7.751630615234375,1.2220393419265747,-1.4689223766326904,0.8567342162132263
1783339091526603300,7.761603271484375,1.2301949262619019,-1.9910709857940674,0.7784072160720825
1783339091536576300,7.771576171875,1.0954225063323975,-2.3551883697509766,0.711298942565918
1783339091546549200,7.78154931640625,0.9297416806221008,-2.4633419513702393,0.6922538876533508
1783339091556522500,7.7915224609375,0.7939901351928711,-2.2243452072143555,0.7284709215164185
1783339091566495500,7.80149560546875,0.6405419707298279,-1.8278528451919556,0.8074905872344971
1783339091576468200,7.81146826171875,0.5654141306877136,-1.5781422853469849,0.8623071908950806
1783339091586441200,7.821441162109375,0.6179153919219971,-1.5254706144332886,0.8420450687408447
1783339091596414200,7.831414306640625,0.70566326379776,-1.5256558656692505,0.767535924911499
1783339091606387500,7.841387451171875,0.7753632068634033,-1.5227885246276855,0.6533715128898621
1783339091616359200,7.851359130859375,0.8019574284553528,-1.5057055950164795,0.46948346495628357
1783339091626332200,7.861332275390625,0.743518590927124,-1.4181169271469116,0.23915092647075653
1783339091636305400,7.871305419921875,0.5814959406852722,-1.205723762512207,0.044880032539367676
1783339091646278400,7.8812783203125,0.36993175745010376,-0.8762811422348022,-0.0764613077044487
1783339091656251100,7.891251220703125,0.19336093962192535,-0.49705013632774353,-0.099191814661026
1783339091666224000,7.90122412109375,0.08379077911376953,-0.09731441736221313,-0.01662902720272541
1783339091676197400,7.911197265625,0.027543317526578903,0.2725941836833954,0.14741772413253784
1783339091686170400,7.92117041015625,-0.013756983913481236,0.5833907127380371,0.3379003405570984
1783339091696143400,7.931143310546875,-0.045617155730724335,0.7709596753120422,0.4733579158782959
1783339091706116000,7.9411162109375,-0.060001954436302185,0.8805218935012817,0.5171003341674805
1783339091716089300,7.95108935546875,-0.0848575159907341,1.0425693988800049,0.47545257210731506
1783339091726062300,7.961062255859375,-0.09003177285194397,1.2184741497039795,0.3454759418964386
1783339091736035300,7.971035400390625,-0.04152125492691994,1.2899421453475952,0.15814858675003052
1783339091746008300,7.98100830078125,0.028364883735775948,1.1562132835388184,-0.03668881207704544
1783339091755981300,7.990981201171875,0.06559528410434723,0.8755848407745361,-0.20816686749458313
1783339091765954300,8.000954345703125,0.03633539751172066,0.5811542868614197,-0.34345945715904236
1783339091775927300,8.01092724609375,-0.04375481605529785,0.3322812020778656,-0.4609507918357849
1783339091785899500,8.0208994140625,-0.15931522846221924,0.1403818130493164,-0.5979206562042236
1783339091795872300,8.030872314453125,-0.31527867913246155,0.1255788654088974,-0.744570791721344
1783339091805845200,8.04084521484375,-0.4974365234375,0.3618611693382263,-0.8877705335617065
1783339091815818200,8.050818359375,-0.6964609026908875,0.7556883692741394,-1.019469141960144
1783339091825791200,8.060791259765624,-0.946125864982605,1.1836965084075928,-1.1466020345687866
1783339091835764500,8.070764404296876,-1.2633522748947144,1.4838625192642212,-1.207161784172058
1783339091845737200,8.0807373046875,-1.5170862674713135,1.4240543842315674,-1.1323487758636475
1783339091855710200,8.090710205078125,-1.6356935501098633,1.015307068824768,-0.834926187992096
1783339091865683200,8.10068310546875,-1.660739779472351,0.6292789578437805,-0.3520016372203827
1783339091875656400,8.110656494140626,-1.4538060426712036,0.9515846371650696,0.1059136688709259
1783339091885629400,8.12062939453125,-0.9183420538902283,1.5651817321777344,0.4186430871486664
1783339091895602200,8.130602294921875,-0.1875256448984146,1.6475847959518433,0.5594270825386047
1783339091905575200,8.1405751953125,0.5668954253196716,1.015181303024292,0.5300459861755371
1783339091915548400,8.15054833984375,0.9949737191200256,0.042455706745386124,0.24793191254138947
1783339091925521400,8.160521484375,0.9477359056472778,-0.6423601508140564,-0.17565451562404633
1783339091935494100,8.170494140625,0.6908798217773438,-0.9376886487007141,-0.6193253397941589
1783339091945467100,8.180467041015625,0.5717478394508362,-0.8555232286453247,-0.8843104243278503
1783339091955439400,8.190439453125,0.7939301133155823,-0.7000633478164673,-0.8968852758407593
1783339091965412400,8.200412353515626,1.1329963207244873,-0.7455333471298218,-0.7081630229949951
1783339091975385000,8.210385009765625,1.3328537940979004,-0.9327275156974792,-0.3772260248661041
1783339091985358300,8.2203583984375,1.35007905960083,-1.2058218717575073,-0.03321750834584236
1783339091995331300,8.230331298828125,1.2176810503005981,-1.3935924768447876,0.21619567275047302
1783339092005304300,8.24030419921875,0.9346948862075806,-1.5114903450012207,0.3561389148235321
1783339092015277300,8.25027734375,0.534306526184082,-1.6621575355529785,0.44423243403434753
1783339092025250300,8.260250244140625,0.2788843512535095,-1.9101364612579346,0.5423638224601746
1783339092035223300,8.270223388671875,0.3111880421638489,-1.9949557781219482,0.614409327507019
1783339092045196300,8.2801962890625,0.4629560112953186,-1.7892467975616455,0.6061479449272156
1783339092055169300,8.290169189453126,0.6038122773170471,-1.4254366159439087,0.46044883131980896
1783339092065142300,8.300142333984375,0.6943536400794983,-1.0158717632293701,0.25968724489212036
1783339092075115300,8.310115234375,0.6771242022514343,-0.6692500710487366,0.11943253874778748
1783339092085088300,8.320088134765625,0.5775811076164246,-0.3776073157787323,0.14974702894687653
1783339092095061200,8.330061279296874,0.42722371220588684,-0.165774405002594,0.31568387150764465
1783339092105034200,8.3400341796875,0.23937125504016876,0.02771090716123581,0.5478276610374451
1783339092115007500,8.350007568359375,0.0709385797381401,0.20772168040275574,0.77714604139328
1783339092124979200,8.359979248046875,-0.08223951607942581,0.3466188609600067,0.9366579651832581
1783339092134952200,8.3699521484375,-0.20988570153713226,0.3483337461948395,0.9750117659568787
1783339092144925400,8.379925537109376,-0.2809990346431732,0.22670266032218933,0.9106735587120056
1783339092154898400,8.3898984375,-0.3416837751865387,0.07053059339523315,0.7814984917640686
1783339092164871200,8.39987109375,-0.40977469086647034,-0.02083607390522957,0.6176925301551819
1783339092174844200,8.40984423828125,-0.4676634669303894,-0.017052942886948586,0.39720606803894043
1783339092184817400,8.4198173828125,-0.51035076379776,0.1120951920747757,0.13172510266304016
1783339092194790400,8.429790283203126,-0.5205527544021606,0.3829132318496704,-0.14019063115119934
1783339092204763400,8.439763427734375,-0.4555636942386627,0.7562034726142883,-0.39598166942596436
1783339092214736100,8.449736083984375,-0.36059367656707764,1.1070671081542969,-0.6262184977531433
1783339092224709400,8.45970947265625,-0.3102596700191498,1.291383981704712,-0.8101012110710144
1783339092234682400,8.469682373046876,-0.3517196476459503,1.2513694763183594,-0.9525210857391357
1783339092244655400,8.4796552734375,-0.45048269629478455,1.0809307098388672,-1.0695611238479614
1783339092254628400,8.48962841796875,-0.5503488183021545,0.9417520761489868,-1.1861759424209595
1783339092264601300,8.499601318359375,-0.6415392160415649,0.9825703501701355,-1.2772706747055054
1783339092274574300,8.50957421875,-0.7381683588027954,1.210448145866394,-1.322980284690857
1783339092284546300,8.51954638671875,-0.8590377569198608,1.5896008014678955,-1.319983959197998
1783339092294519300,8.529519287109375,-1.0025355815887451,2.083545207977295,-1.2561451196670532
1783339092304492300,8.5394921875,-1.1820192337036133,2.539374589920044,-1.1188015937805176
1783339092314465300,8.54946533203125,-1.3773714303970337,2.601789951324463,-0.880054771900177
1783339092324438300,8.559438232421876,-1.4178121089935303,2.1253304481506348,-0.6490265727043152
1783339092334411300,8.569411376953125,-1.290658950805664,1.4217053651809692,-0.4621618390083313
1783339092344384300,8.57938427734375,-1.0784915685653687,0.8352216482162476,-0.33492985367774963
1783339092354357200,8.589357177734374,-0.779292643070221,0.8562189340591431,-0.37585341930389404
1783339092364330200,8.599330322265626,-0.2779078781604767,1.377880334854126,-0.6257743239402771
1783339092374303200,8.60930322265625,0.39196935296058655,1.7705962657928467,-0.8567225337028503
1783339092384276500,8.6192763671875,1.1916556358337402,1.1199836730957031,-0.8073440790176392
1783339092394249200,8.629249267578125,1.6187773942947388,-0.7315593957901001,-0.4385005831718445
1783339092404222200,8.63922216796875,1.4483883380889893,-2.0670835971832275,0.04059118777513504
1783339092414195200,8.6491953125,1.315712571144104,-1.389836072921753,0.38876596093177795
1783339092424168400,8.65916845703125,1.2078462839126587,0.6745196580886841,0.5993669033050537
1783339092434141400,8.669141357421875,1.0087155103683472,1.305309772491455,0.8052252531051636
1783339092444114200,8.6791142578125,0.8351333141326904,0.6002442836761475,0.9049862027168274
1783339092454086400,8.68908642578125,0.8574188947677612,-0.33083638548851013,0.8449817895889282
1783339092464059400,8.699059326171875,0.8901680707931519,-1.1159641742706299,0.7063006162643433
1783339092474032400,8.709032470703125,0.8750906586647034,-1.582185983657837,0.591189980506897
1783339092484005000,8.719005126953125,0.8879345655441284,-1.8355945348739624,0.5457369685173035
1783339092493978400,8.728978271484374,0.9258379936218262,-1.9363723993301392,0.5449487566947937
1783339092503951400,8.738951416015626,0.9383755922317505,-1.9435210227966309,0.5844290852546692
1783339092513924400,8.74892431640625,0.8669224977493286,-1.9786087274551392,0.6875157952308655
1783339092523897300,8.7588974609375,0.6886507272720337,-2.0007505416870117,0.7962512969970703
1783339092533870300,8.768870361328124,0.5233959555625916,-2.1060879230499268,0.8189401030540466
1783339092543843300,8.77884326171875,0.46010538935661316,-2.2125906944274902,0.7298749089241028
1783339092553816300,8.78881640625,0.44848594069480896,-2.115771532058716,0.6056843996047974
1783339092563789300,8.798789306640625,0.43543803691864014,-1.8585032224655151,0.4726286232471466
1783339092573762300,8.80876220703125,0.3993794620037079,-1.5859874486923218,0.33297818899154663
1783339092583735300,8.8187353515625,0.34541741013526917,-1.3136539459228516,0.2340894341468811
1783339092593708300,8.828708251953126,0.26901012659072876,-1.06387460231781,0.21676138043403625
1783339092603681300,8.838681396484375,0.21591946482658386,-0.9085280895233154,0.2649233341217041
1783339092613654000,8.848654052734375,0.21943655610084534,-0.8563302159309387,0.3355262279510498
1783339092623626000,8.8586259765625,0.24980777502059937,-0.8215429186820984,0.4115149974822998
1783339092633599000,8.868598876953126,0.2667705714702606,-0.738980770111084,0.4991270899772644
1783339092643572000,8.878572021484375,0.27028754353523254,-0.6298329830169678,0.5768043398857117
1783339092653545200,8.888545166015625,0.2709754705429077,-0.5463931560516357,0.619763195514679
1783339092663518000,8.89851806640625,0.28067684173583984,-0.45397692918777466,0.6297380328178406
1783339092673491000,8.908490966796874,0.29855185747146606,-0.3073016107082367,0.6145783066749573
1783339092683464000,8.9184638671875,0.3108106553554535,-0.11142530292272568,0.5552071332931519
1783339092693437200,8.928437255859375,0.3037770688533783,0.0332394614815712,0.3976091742515564
1783339092703410200,8.93841015625,0.2635476291179657,0.04822879657149315,0.12868714332580566
1783339092713383000,8.9483828125,0.21181462705135345,-0.004251418635249138,-0.19318975508213043
1783339092723356000,8.95835595703125,0.14780181646347046,-0.02412419207394123,-0.4950348138809204
1783339092733329200,8.9683291015625,0.08747871965169907,0.08087647706270218,-0.730722188949585
1783339092743302100,8.97830224609375,0.016397085040807724,0.2868751883506775,-0.8889912366867065
1783339092753275100,8.988275146484375,-0.08762801438570023,0.5462244153022766,-0.9662682414054871
1783339092763247900,8.998247802734374,-0.22788791358470917,0.7888951301574707,-0.9733327627182007
1783339092773220000,9.00822021484375,-0.39978453516960144,0.9941437840461731,-0.9295137524604797
1783339092783193000,9.018193115234375,-0.6016324162483215,1.2337976694107056,-0.8449195027351379
1783339092793166000,9.028166015625,-0.8767746090888977,1.5900019407272339,-0.7375116944313049
1783339092803139000,9.03813916015625,-1.2789257764816284,2.2049524784088135,-0.6297862529754639
1783339092813112000,9.048112060546876,-1.8035557270050049,3.281663656234741,-0.527653694152832
1783339092823085000,9.0580849609375,-2.4294121265411377,4.660346984863281,-0.34650444984436035
1783339092833058000,9.06805810546875,-2.9958181381225586,5.153085231781006,0.07812020182609558
1783339092843031000,9.078031005859375,-3.023172616958618,3.560176134109497,0.6848945617675781
1783339092853004000,9.088004150390624,-2.4178555011749268,1.5053132772445679,1.2997523546218872
1783339092862977000,9.09797705078125,-1.6565032005310059,0.5183553099632263,1.5080374479293823
1783339092872950000,9.107949951171875,-1.018859624862671,0.4178867042064667,0.7888910174369812
1783339092882923000,9.117923095703125,-0.6230317950248718,0.29138150811195374,-0.5480957627296448
1783339092892896000,9.12789599609375,-0.2577139735221863,0.8961553573608398,-1.7326961755752563
1783339092902869000,9.137868896484376,0.5465473532676697,0.7071159482002258,-2.1392300128936768
1783339092912842000,9.147842041015625,1.916883111000061,-1.3767931461334229,-1.3854707479476929
1783339092922815000,9.15781494140625,2.5779194831848145,-2.118710994720459,-0.29167303442955017
1783339092932788200,9.167788330078125,2.2777936458587646,-0.4561668634414673,0.5608115196228027
1783339092942760000,9.177760009765626,1.5725425481796265,0.7140085101127625,1.166772484779358
1783339092952733000,9.18773291015625,0.9793174862861633,0.42799293994903564,1.4029808044433594
1783339092962706200,9.1977060546875,0.8533406257629395,-0.36998146772384644,1.439984679222107
1783339092972679200,9.20767919921875,1.0392543077468872,-1.0875903367996216,1.2787182331085205
1783339092982652000,9.21765185546875,1.277248501777649,-1.6047905683517456,0.9979400634765625
1783339092992625000,9.227625,1.3740670680999756,-1.8237569332122803,0.7192369103431702
1783339093002598100,9.23759814453125,1.3193844556808472,-1.8359293937683105,0.5290720462799072
1783339093012571100,9.247571044921875,1.2242785692214966,-1.7661354541778564,0.42216017842292786
1783339093022544100,9.257544189453125,1.1436604261398315,-1.7247562408447266,0.3105210065841675
1783339093032516900,9.267516845703126,0.9922957420349121,-1.734563946723938,0.11262728273868561
1783339093042490000,9.277489990234375,0.7177674770355225,-1.722564697265625,-0.17665620148181915
1783339093052463000,9.287463134765625,0.4440506398677826,-1.5200330018997192,-0.473517507314682
1783339093062436000,9.29743603515625,0.2848503291606903,-1.162174940109253,-0.7133210301399231
1783339093072409000,9.3074091796875,0.28172606229782104,-0.8721488118171692,-0.9026480317115784
1783339093082382000,9.317382080078126,0.3511200547218323,-0.7021536827087402,-0.967901349067688
1783339093092355000,9.32735498046875,0.39949843287467957,-0.647373616695404,-0.871183454990387
1783339093102327000,9.3373271484375,0.37205269932746887,-0.6305530667304993,-0.6970446705818176
1783339093112300000,9.347300048828124,0.31070175766944885,-0.5029030442237854,-0.5525695085525513
1783339093122273000,9.35727294921875,0.19996994733810425,-0.26778239011764526,-0.48603492975234985
1783339093132246000,9.36724609375,0.06974464654922485,0.0029567419551312923,-0.5139501690864563
1783339093142219000,9.377218994140625,0.01012579258531332,0.2133166491985321,-0.6091344952583313
1783339093152192000,9.38719189453125,0.013572920113801956,0.35012465715408325,-0.7410615682601929
1783339093162165200,9.397165283203124,0.07578249275684357,0.45463427901268005,-0.8818618059158325
1783339093172138000,9.407137939453126,0.20782506465911865,0.595231831073761,-1.0212284326553345
1783339093182111000,9.417111083984375,0.42212167382240295,0.7538121342658997,-1.1609197854995728
1783339093192084000,9.427083984375,0.6175306439399719,0.927910327911377,-1.2843681573867798
1783339093202057200,9.43705712890625,0.7728589773178101,1.1563695669174194,-1.3576788902282715
1783339093212030000,9.447030029296876,0.8736072182655334,1.2818340063095093,-1.3721212148666382
1783339093222003000,9.4570029296875,0.8474856019020081,1.1290820837020874,-1.3436062335968018
1783339093231976000,9.466975830078125,0.6328185796737671,0.6727789044380188,-1.270714521408081
1783339093241949200,9.47694921875,0.223348468542099,0.041287485510110855,-1.1625094413757324
1783339093251921000,9.4869208984375,-0.303274005651474,-0.5185026526451111,-1.0715426206588745
1783339093261894000,9.496893798828125,-0.727102518081665,-0.6289466023445129,-1.0217615365982056
1783339093271867100,9.5068671875,-0.9762902855873108,-0.1592799872159958,-1.009691834449768
1783339093281840000,9.516840087890625,-1.1385633945465088,0.9038318395614624,-1.1025805473327637
1783339093291813000,9.526813232421874,-1.2556045055389404,2.349144458770752,-1.3482868671417236
1783339093301785900,9.536785888671876,-1.3942902088165283,3.887897491455078,-1.662657380104065
1783339093311759000,9.546759033203125,-1.3717247247695923,4.501278877258301,-1.825652837753296
1783339093321732000,9.556732177734375,-1.066146731376648,3.5643796920776367,-1.8144835233688354
1783339093331705000,9.566705078125,-0.5926108956336975,2.4784884452819824,-1.558631420135498
1783339093341678000,9.576677978515624,-0.004604061599820852,2.307103395462036,-0.8229177594184875
1783339093351651000,9.586651123046876,0.4964010417461395,3.154069662094116,0.22249892354011536
1783339093361624000,9.5966240234375,0.9173176288604736,3.1782336235046387,1.485140323638916
1783339093371597000,9.60659716796875,1.471899151802063,1.5658913850784302,2.8090133666992188
1783339093381570000,9.616570068359374,1.724730134010315,-0.2230074405670166,3.927926540374756
1783339093391543000,9.62654296875,1.3040668964385986,-0.2279961109161377,4.39767599105835
1783339093401516000,9.63651611328125,0.804546594619751,0.9657866358757019,4.393124580383301
1783339093411488000,9.646488037109375,0.6409879326820374,1.2660375833511353,4.180332660675049
1783339093421461000,9.6564609375,0.8335707187652588,0.39470529556274414,3.7642953395843506
1783339093431434200,9.666434326171874,1.160279393196106,-0.6471846699714661,2.9766688346862793
1783339093441407000,9.676406982421875,1.1761200428009033,-1.4850537776947021,1.7933323383331299
1783339093451380000,9.6863798828125,1.1228021383285522,-1.912838101387024,0.5520152449607849
1783339093461353000,9.69635302734375,1.164892315864563,-2.203855514526367,-0.5223079323768616
1783339093471326200,9.706326171875,1.1721254587173462,-2.5057151317596436,-1.4159862995147705
1783339093481299200,9.71629931640625,1.084092617034912,-2.787681818008423,-2.142617702484131
1783339093491272000,9.72627197265625,0.95061194896698,-2.992896556854248,-2.6419243812561035
1783339093501245000,9.736244873046875,0.7958471775054932,-3.1159446239471436,-2.773206949234009
1783339093511218200,9.74621826171875,0.5976380705833435,-3.207064151763916,-2.551042079925537
1783339093521191200,9.756191162109374,0.35326454043388367,-3.4127767086029053,-2.144317626953125
1783339093531164200,9.7661640625,0.0677817240357399,-3.5624046325683594,-1.663415789604187
1783339093541136100,9.77613623046875,-0.23454326391220093,-3.5002665519714355,-1.1716687679290771
1783339093551109000,9.786109130859375,-0.4660847783088684,-3.0696299076080322,-0.7093328833580017
1783339093561082000,9.79608203125,-0.5020800828933716,-2.359358549118042,-0.26031383872032166
1783339093571054800,9.806054931640626,-0.39646363258361816,-1.7067861557006836,0.17629209160804749
1783339093581028000,9.816028076171875,-0.2399454116821289,-1.2640001773834229,0.5417600870132446
1783339093591001000,9.8260009765625,-0.1037231981754303,-1.0431880950927734,0.7933545112609863
1783339093600974000,9.83597412109375,0.047987766563892365,-0.8915802836418152,0.9316367506980896
1783339093610947000,9.845947021484376,0.22251364588737488,-0.7003047466278076,0.9879893064498901
1783339093620920000,9.855920166015625,0.3659546673297882,-0.3213222324848175,0.9334906339645386
1783339093630893000,9.86589306640625,0.4641680121421814,0.23757745325565338,0.7596133947372437
1783339093640866000,9.875865966796875,0.5402710437774658,0.7934718728065491,0.48253998160362244
1783339093650838000,9.885838134765624,0.5671204328536987,1.1511842012405396,0.1097816452383995
1783339093660811000,9.89581103515625,0.4935687184333801,1.1982078552246094,-0.36038529872894287
1783339093670784000,9.905783935546875,0.4064168930053711,1.2034426927566528,-0.7685694098472595
1783339093680756700,9.9157568359375,0.3158462345600128,1.3713332414627075,-1.0112768411636353
1783339093690730000,9.92572998046875,0.26020893454551697,1.5318374633789062,-1.1204818487167358
1783339093700703000,9.935702880859376,0.14201119542121887,1.6583770513534546,-1.0932060480117798
1783339093710676000,9.945676025390625,-0.02330080419778824,1.5999755859375,-0.9550196528434753
1783339093720649000,9.95564892578125,-0.1767745167016983,1.3472658395767212,-0.7315194606781006
1783339093730621700,9.96562158203125,-0.34467053413391113,1.0671308040618896,-0.472042977809906
1783339093740595000,9.975594970703124,-0.5132033228874207,0.8963423371315002,-0.24004970490932465
1783339093750568000,9.98556787109375,-0.7027914524078369,0.858559250831604,-0.08395320177078247
1783339093760541000,9.995541015625,-0.936218798160553,0.9178204536437988,-0.004649322479963303
1783339093770514000,10.005513916015625,-1.1711509227752686,0.9965342283248901,0.017166636884212494
1783339093780487000,10.01548681640625,-1.4134361743927002,1.1015061140060425,-0.00966311153024435
1783339093790460000,10.0254599609375,-1.6081980466842651,1.0846748352050781,-0.04103389382362366
1783339093800431900,10.035431884765625,-1.7152125835418701,1.501481533050537,-0.05984113737940788
1783339093810405000,10.045405029296875,-1.6925710439682007,2.064483404159546,-0.09576722234487534
1783339093820377900,10.0553779296875,-1.4945136308670044,1.5953811407089233,-0.09187501668930054
1783339093830350800,10.065350830078126,-1.2256066799163818,0.876158595085144,-0.09997884929180145
1783339093840323800,10.07532373046875,-0.9913548231124878,1.449170708656311,-0.26478350162506104
1783339093850297000,10.085297119140625,-0.6976871490478516,2.6476831436157227,-0.5177727341651917
1783339093860270000,10.09527001953125,-0.10712986439466476,2.667829990386963,-0.6045912504196167
1783339093870242800,10.105242919921874,0.612206757068634,1.0040309429168701,-0.25877249240875244
1783339093880215800,10.1152158203125,1.1269952058792114,-1.2092734575271606,0.5697965621948242
1783339093890189000,10.12518896484375,0.8699348568916321,-1.0065243244171143,1.3261363506317139
1783339093900162000,10.135162109375,0.7886391878128052,2.4638266563415527,1.8259011507034302
1783339093910135000,10.145135009765625,0.7562512755393982,3.193842887878418,2.0901601314544678
1783339093920107800,10.155107666015626,0.8053346872329712,0.8939688205718994,2.108393430709839
1783339093930080800,10.165080810546876,0.6508938670158386,-1.377446174621582,1.8849194049835205
1783339093940054000,10.175053955078125,0.5006524920463562,-1.9217150211334229,1.4649673700332642
1783339093950026000,10.18502587890625,0.562208890914917,-1.603459119796753,0.9662489891052246
1783339093959998700,10.194998779296874,0.7077980041503906,-1.4703871011734009,0.4361089766025543
1783339093969972000,10.204971923828126,0.8253663182258606,-1.5843636989593506,-0.04500062018632889
1783339093979945000,10.214945068359375,0.923438549041748,-1.7938873767852783,-0.38506975769996643
1783339093989918000,10.22491796875,1.0448304414749146,-2.063476324081421,-0.5656918287277222
1783339093999891000,10.234890869140624,1.128767728805542,-2.2778584957122803,-0.5636113882064819
1783339094009864000,10.244864013671876,1.0695877075195312,-2.430741310119629,-0.42711344361305237
1783339094019837000,10.2548369140625,0.998615562915802,-2.449408531188965,-0.16054116189479828
1783339094029810000,10.264809814453125,0.8534184098243713,-2.256748676300049,0.19734208285808563
1783339094039783000,10.274782958984375,0.6862995028495789,-1.8994026184082031,0.5653062462806702
1783339094049756000,10.284755859375,0.5805310010910034,-1.5873029232025146,0.811822235584259
1783339094059729000,10.29472900390625,0.4703211486339569,-1.4099172353744507,0.8552802205085754
1783339094069702000,10.304701904296875,0.33375248312950134,-1.2068730592727661,0.8009916543960571
1783339094079675000,10.3146748046875,0.2582648992538452,-0.9537947177886963,0.6827808618545532
1783339094089646800,10.324646728515624,0.26275986433029175,-0.750810444355011,0.4761175513267517
1783339094099619800,10.334619873046876,0.28370827436447144,-0.5725126266479492,0.24123740196228027
1783339094109592800,10.3445927734375,0.27247393131256104,-0.39074376225471497,0.005746109876781702
1783339094119566000,10.354566162109375,0.24144624173641205,-0.2473226636648178,-0.21447815001010895
1783339094129539000,10.3645390625,0.21549952030181885,-0.14396430552005768,-0.4148600101470947
1783339094139511800,10.37451171875,0.22138909995555878,-0.08988029509782791,-0.5814117193222046
1783339094149484800,10.38448486328125,0.25768592953681946,-0.07217122614383698,-0.7029228806495667
1783339094159458000,10.3944580078125,0.28483155369758606,-0.03127918764948845,-0.811102569103241
1783339094169431000,10.40443115234375,0.25826215744018555,0.0654793232679367,-0.920951783657074
1783339094179404000,10.414404052734374,0.20172083377838135,0.19575823843479156,-1.0254664421081543
1783339094189376800,10.424376708984376,0.1326635777950287,0.3236350119113922,-1.0972293615341187
1783339094199349800,10.434349853515625,0.060092173516750336,0.40640392899513245,-1.106310486793518
1783339094209323000,10.444322998046875,-0.0002763939555734396,0.41627559065818787,-1.0597128868103027
1783339094219296000,10.4542958984375,-0.06273577362298965,0.373038113117218,-0.9869577288627625
1783339094229267700,10.464267822265626,-0.1769672930240631,0.34830838441848755,-0.9168229103088379
1783339094239241000,10.474240966796875,-0.37021079659461975,0.39659467339515686,-0.8647496104240417
1783339094249214000,10.4842138671875,-0.639904797077179,0.5464347004890442,-0.8208828568458557
1783339094259187000,10.49418701171875,-0.9579877257347107,0.7579631805419922,-0.7797040343284607
1783339094269160000,10.504159912109374,-1.3137410879135132,1.0121712684631348,-0.7437148094177246
1783339094279133000,10.5141328125,-1.7259126901626587,1.2582486867904663,-0.7166181802749634
1783339094289106000,10.52410595703125,-2.1527421474456787,1.4425464868545532,-0.6873515844345093
1783339094299079000,10.534078857421875,-2.5124285221099854,1.589435338973999,-0.6314584612846375
1783339094309052000,10.544052001953125,-2.6394736766815186,1.5369118452072144,-0.5071591138839722
1783339094319025200,10.554025146484374,-2.513378858566284,1.2244751453399658,-0.3719182014465332
1783339094328998000,10.563997802734375,-2.2175991535186768,0.7470145225524902,-0.3554554581642151
1783339094338971000,10.573970947265625,-1.8661470413208008,0.8326130509376526,-0.5252066850662231
1783339094348944000,10.58394384765625,-1.4384959936141968,1.5667123794555664,-0.7510450482368469
1783339094358917000,10.593917236328124,-0.7737044095993042,2.0535595417022705,-0.7893612384796143
1783339094368888800,10.603888916015626,0.19248546659946442,2.043826103210449,-0.5270615220069885
1783339094378861800,10.61386181640625,1.1213511228561401,1.359885573387146,0.07471275329589844
1783339094388835000,10.6238349609375,1.3403855562210083,0.051935214549303055,0.8368659019470215
1783339094398808000,10.63380810546875,1.0049843788146973,-0.4827159345149994,1.447417974472046
1783339094408780800,10.64378076171875,0.6844301223754883,-0.0351896658539772,1.725402593612671
1783339094418753800,10.65375390625,0.6367558240890503,0.07538025826215744,1.8072527647018433
1783339094428726800,10.663726806640625,0.7666945457458496,-0.20728446543216705,1.7339119911193848
1783339094438700000,10.673699951171875,0.9338909983634949,-0.5042519569396973,1.6109530925750732
1783339094448673000,10.683673095703124,1.0755879878997803,-0.7431296110153198,1.5394667387008667
1783339094458645800,10.693645751953126,1.2333173751831055,-1.0393106937408447,1.4657541513442993
1783339094468618800,10.70361865234375,1.3534525632858276,-1.4726961851119995,1.31772780418396
1783339094478592000,10.713592041015625,1.332865834236145,-1.9123127460479736,1.0790374279022217
1783339094488565000,10.72356494140625,1.2827335596084595,-2.1767656803131104,0.8134645223617554
1783339094498538000,10.7335380859375,1.3117105960845947,-2.2188854217529297,0.56730055809021
1783339094508510000,10.743510009765625,1.3518399000167847,-2.1162590980529785,0.37038755416870117
1783339094518483000,10.75348291015625,1.2115528583526611,-2.0285918712615967,0.2155335247516632
1783339094528456000,10.7634560546875,0.974214494228363,-1.9595673084259033,0.16390003263950348
1783339094538429000,10.773428955078124,0.771436333656311,-1.841601014137268,0.21436800062656403
1783339094548402000,10.78340185546875,0.6090556383132935,-1.6814205646514893,0.2697453498840332
1783339094558375000,10.793375,0.49751952290534973,-1.4776127338409424,0.31333303451538086
1783339094568348000,10.803347900390625,0.46507424116134644,-1.1921663284301758,0.3702850937843323
1783339094578321000,10.81332080078125,0.47925716638565063,-0.851671040058136,0.4110274612903595
1783339094588294100,10.823294189453126,0.5058539509773254,-0.5863603949546814,0.30949094891548157
1783339094598267000,10.833266845703125,0.5565309524536133,-0.4281161427497864,0.08266367018222809
1783339094608239900,10.843239990234375,0.5706971883773804,-0.3292824327945709,-0.167864590883255
1783339094618212900,10.853212890625,0.5260343551635742,-0.22626179456710815,-0.3849859833717346
1783339094628186000,10.86318603515625,0.4420146644115448,-0.06579660624265671,-0.5426461696624756
1783339094638159000,10.8731591796875,0.36614173650741577,0.13499560952186584,-0.6341547966003418
1783339094648130800,10.883130859375,0.3086991012096405,0.33668655157089233,-0.6717195510864258
1783339094658104000,10.89310400390625,0.2598961591720581,0.5193865299224854,-0.6868657469749451
1783339094668077000,10.9030771484375,0.22472825646400452,0.7120312452316284,-0.704800546169281
1783339094678050000,10.913050048828126,0.18180875480175018,0.9106724262237549,-0.7373281717300415
1783339094688023000,10.92302294921875,0.09680438786745071,1.0162837505340576,-0.7758812308311462
1783339094697995800,10.932995849609375,-0.008330818265676498,1.007011890411377,-0.8174139857292175
1783339094707969000,10.942968994140625,-0.09313173592090607,0.9071136116981506,-0.8638738393783569
1783339094717942000,10.95294189453125,-0.1379101276397705,0.7683219313621521,-0.9054500460624695
1783339094727915000,10.9629150390625,-0.18646419048309326,0.6690358519554138,-0.9330381751060486
1783339094737888000,10.972887939453125,-0.2609490752220154,0.6834363341331482,-0.9210638403892517
1783339094747861000,10.982861083984375,-0.36185136437416077,0.8664301633834839,-0.8422976136207581
1783339094757834000,10.992833984375,-0.4641106128692627,1.1668035984039307,-0.7024009823799133
1783339094767807000,11.002806884765626,-0.5612547397613525,1.511376976966858,-0.531896710395813
1783339094777780000,11.012780029296875,-0.7115563750267029,1.9088367223739624,-0.36355409026145935
1783339094787752000,11.022751953125,-0.9246116280555725,2.3906755447387695,-0.19539952278137207
1783339094797725000,11.032724853515624,-1.1579660177230835,2.8222780227661133,0.02291816473007202
1783339094807698000,11.042697998046876,-1.4105499982833862,2.9465925693511963,0.3359539210796356
1783339094817671200,11.052671142578125,-1.6603033542633057,2.6599855422973633,0.7043218016624451
1783339094827644200,11.06264404296875,-1.790823221206665,1.647829532623291,0.9783640503883362
1783339094837617000,11.072616943359375,-1.72507643699646,1.0291393995285034,0.7849701046943665
1783339094847590000,11.08258984375,-1.4478520154953003,1.1228787899017334,0.15647922456264496
1783339094857563100,11.092563232421876,-1.0864957571029663,1.1562646627426147,-0.5249475836753845
1783339094867536100,11.1025361328125,-0.6696459054946899,1.2903194427490234,-1.0053939819335938
1783339094877509000,11.112509033203125,-0.17905409634113312,1.3810226917266846,-1.0611985921859741
1783339094887481900,11.12248193359375,0.2274826169013977,1.0181758403778076,-0.5653355717658997
1783339094897455000,11.132455078125,0.44481149315834045,0.2682640552520752,0.12980271875858307
1783339094907428000,11.142427978515625,0.5697141885757446,-0.14681848883628845,0.5025354027748108
1783339094917401000,11.152401123046875,0.7185121774673462,-0.3498205840587616,0.5588258504867554
1783339094927373000,11.162373046875,0.8642458915710449,-0.6663105487823486,0.4827151596546173
1783339094937346000,11.172345947265624,0.9569219946861267,-1.0453885793685913,0.40042242407798767
1783339094947319000,11.182319091796876,0.9762776494026184,-1.431918740272522,0.34367600083351135
1783339094957292000,11.1922919921875,0.9506615400314331,-1.8068773746490479,0.34140273928642273
1783339094967264800,11.2022646484375,0.8806129097938538,-2.1262834072113037,0.38144657015800476
1783339094977238000,11.212238037109374,0.7595642805099487,-2.417036771774292,0.4215486943721771
1783339094987211000,11.2222109375,0.5906953811645508,-2.666149854660034,0.46807679533958435
1783339094997184000,11.23218408203125,0.36026689410209656,-2.8099029064178467,0.5173807144165039
1783339095007157000,11.242156982421875,0.15376833081245422,-2.816838264465332,0.5659304857254028
1783339095017130000,11.2521298828125,0.12247245758771896,-2.644407272338867,0.5947189927101135
1783339095027103000,11.26210302734375,0.27593889832496643,-2.371234178543091,0.5882128477096558
1783339095037076000,11.272075927734376,0.5126352906227112,-2.03525447845459,0.5690423250198364
1783339095047049000,11.282049072265625,0.7247197031974792,-1.7301212549209595,0.5213600993156433
1783339095057021000,11.29202099609375,0.8332526087760925,-1.5414546728134155,0.4369490146636963
1783339095066994000,11.301993896484374,0.8471816182136536,-1.461917519569397,0.3289448916912079
1783339095076967000,11.311966796875,0.8004338145256042,-1.3721729516983032,0.26028940081596375
1783339095086940200,11.321940185546875,0.7216499447822571,-1.200596570968628,0.22034399211406708
1783339095096913200,11.3319130859375,0.6620348691940308,-0.9512428045272827,0.12845534086227417
1783339095106886000,11.341885986328125,0.6073572635650635,-0.685541033744812,-0.007397325709462166
1783339095116859000,11.35185888671875,0.5321301817893982,-0.43723559379577637,-0.12490025162696838
1783339095126832000,11.36183203125,0.43229368329048157,-0.2529847025871277,-0.21370016038417816
1783339095136805000,11.37180517578125,0.3374715745449066,-0.1701129674911499,-0.285087525844574
1783339095146778000,11.381778076171875,0.27046889066696167,-0.14387163519859314,-0.3283076286315918
1783339095156750800,11.391750732421874,0.24872976541519165,-0.06623063236474991,-0.3534713089466095
1783339095166723800,11.401723876953126,0.23408839106559753,0.10046813637018204,-0.3777538537979126
1783339095176697000,11.411697021484375,0.2146177589893341,0.27562662959098816,-0.41148409247398376
1783339095186669000,11.4216689453125,0.14893154799938202,0.33966460824012756,-0.4853639304637909
1783339095196642000,11.43164208984375,0.028062649071216583,0.31291237473487854,-0.5833463668823242
1783339095206615000,11.441614990234376,-0.09120934456586838,0.27142828702926636,-0.7057020664215088
1783339095216588000,11.451588134765625,-0.20898205041885376,0.27370685338974,-0.8421294093132019
1783339095226561000,11.46156103515625,-0.34291064739227295,0.3964124917984009,-0.9843292236328125
1783339095236534000,11.471533935546875,-0.47659626603126526,0.6321307420730591,-1.1071257591247559
1783339095246507000,11.481507080078124,-0.6152461171150208,0.9444331526756287,-1.2102128267288208
1783339095256480000,11.49147998046875,-0.8042157888412476,1.351271152496338,-1.285149335861206
1783339095266453000,11.501452880859375,-1.1136517524719238,2.045062780380249,-1.3236849308013916
1783339095276426000,11.511426025390625,-1.6458319425582886,3.2826638221740723,-1.2634227275848389
1783339095286399200,11.521399169921875,-2.3873131275177,4.7649407386779785,-0.9565210938453674
1783339095296372000,11.5313720703125,-3.195415735244751,5.6569976806640625,-0.24935273826122284
1783339095306345000,11.541344970703125,-3.592456579208374,3.9824631214141846,0.5493885278701782
1783339095316317200,11.551317138671875,-3.112785577774048,1.3043066263198853,1.0748623609542847
1783339095326290000,11.5612900390625,-2.1367833614349365,0.35784319043159485,0.8598080277442932
1783339095336263000,11.571262939453124,-1.0132873058319092,1.2373743057250977,0.15658892691135406
1783339095346236000,11.58123583984375,0.07941867411136627,2.273331880569458,-0.5262202024459839
1783339095356209200,11.591209228515625,0.9476941227912903,2.199958562850952,-0.8697503805160522
1783339095366182100,11.60118212890625,1.3985031843185425,1.0987539291381836,-0.8482979536056519
1783339095376155000,11.61115478515625,1.3929851055145264,-0.26949775218963623,-0.4886931777000427
1783339095386128000,11.6211279296875,1.1633180379867554,-0.5319315791130066,0.29621052742004395
1783339095396101000,11.63110107421875,0.7279717922210693,0.6405293345451355,1.3000850677490234
1783339095406074000,11.64107421875,0.3296988904476166,0.5926023125648499,1.7191168069839478
1783339095416047000,11.651047119140625,0.22728410363197327,-0.264824241399765,1.434877634048462
1783339095426019800,11.661019775390624,0.4513947069644928,-0.7775839567184448,0.9996235966682434
1783339095435992800,11.670992919921876,0.787729024887085,-1.14393150806427,0.7635713815689087
1783339095445965000,11.680965087890625,1.0082703828811646,-1.6070302724838257,0.6507193446159363
1783339095455938000,11.69093798828125,1.0606211423873901,-2.035830497741699,0.5710530281066895
1783339095465910800,11.700910888671874,1.0146795511245728,-2.221712350845337,0.4840049743652344
1783339095475884000,11.710884033203126,0.8981978893280029,-2.2352957725524902,0.39509907364845276
1783339095485857000,11.72085693359375,0.6511870622634888,-2.232635736465454,0.29478543996810913
1783339095495830000,11.730830078125,0.3376815617084503,-2.201711893081665,0.23310025036334991
1783339095505803000,11.740802978515624,0.11956112086772919,-2.1903975009918213,0.1767420470714569
1783339095515776000,11.75077587890625,0.0924549400806427,-2.2007298469543457,0.06063435599207878
1783339095525749000,11.7607490234375,0.20869800448417664,-2.17922043800354,-0.12386000156402588
1783339095535722000,11.770721923828125,0.38236886262893677,-2.013463020324707,-0.3105803430080414
1783339095545695000,11.780695068359375,0.5724529027938843,-1.694943904876709,-0.4170980453491211
1783339095555668200,11.790668212890624,0.6630842685699463,-1.3741816282272339,-0.4535684585571289
1783339095565640000,11.800639892578126,0.6372417211532593,-1.0629392862319946,-0.3650469183921814
1783339095575613000,11.810613037109375,0.5716451406478882,-0.8493574261665344,-0.18269042670726776
1783339095585586200,11.820586181640625,0.573729932308197,-0.7525416612625122,0.04812018945813179
1783339095595559200,11.83055908203125,0.6514462828636169,-0.7035618424415588,0.23331321775913239
1783339095605532000,11.840531982421876,0.6721866726875305,-0.618975818157196,0.37392088770866394
1783339095615504600,11.850504638671875,0.6503514051437378,-0.5070412755012512,0.49657756090164185
1783339095625478000,11.860477783203125,0.5867088437080383,-0.43760162591934204,0.6006903052330017
1783339095635451000,11.870450927734375,0.5138631463050842,-0.3554060757160187,0.6581711769104004
1783339095645423600,11.880423583984374,0.4501951038837433,-0.2249489426612854,0.6444435715675354
1783339095655396600,11.890396728515626,0.37271788716316223,-0.10947400331497192,0.5354150533676147
1783339095665369900,11.900369873046875,0.277323842048645,-0.024338727816939354,0.3177938163280487
1783339095675342800,11.9103427734375,0.19395998120307922,-0.0054651726968586445,0.013395034708082676
1783339095685315800,11.92031591796875,0.11530981957912445,-0.04325127229094505,-0.3224398195743561
1783339095695287800,11.930287841796876,0.03252332657575607,-0.05942678079009056,-0.6172205805778503
1783339095705260800,11.9402607421875,-0.06684660166501999,0.0013536494225263596,-0.8328602313995361
1783339095715233800,11.95023388671875,-0.18424193561077118,0.1676667183637619,-0.9562644958496094
1783339095725206800,11.960206787109374,-0.32312577962875366,0.40984687209129333,-1.0081961154937744
1783339095735179800,11.9701796875,-0.5142009258270264,0.6920119524002075,-1.0036489963531494
1783339095745152800,11.98015283203125,-0.7836472392082214,1.0140351057052612,-0.9341403245925903
1783339095755125800,11.990125732421875,-1.1444026231765747,1.440925121307373,-0.7891503572463989
1783339095765098800,12.0000986328125,-1.620962381362915,2.1745214462280273,-0.556963324546814
1783339095775071700,12.01007177734375,-2.1781504154205322,3.443063259124756,-0.23483030498027802
1783339095785044700,12.020044677734376,-2.7939295768737793,5.035695552825928,0.24985091388225555
1783339095795017700,12.030017822265625,-3.305011034011841,5.219207763671875,0.7515187859535217
1783339095804990700,12.03999072265625,-3.1901769638061523,3.149111032485962,1.0549979209899902
1783339095814963700,12.049963623046875,-2.6075925827026367,1.5849254131317139,1.0755747556686401
1783339095824935700,12.059935791015626,-2.0399539470672607,1.860788106918335,0.6294668316841125
1783339095834908700,12.06990869140625,-1.4342408180236816,1.5404026508331299,-0.3890093266963959
1783339095844881700,12.079881591796875,-0.8266348838806152,1.121585726737976,-1.4706350564956665
1783339095854855000,12.08985498046875,0.0027307113632559776,1.4229736328125,-2.10009765625
1783339095864828000,12.099827880859374,1.0566201210021973,1.1269668340682983,-2.136629581451416
1783339095874800600,12.109800537109376,1.5811680555343628,-0.1197848990559578,-1.6737288236618042
1783339095884773600,12.119773681640625,1.6808737516403198,-1.2739511728286743,-0.6448425650596619
1783339095894747000,12.129746826171875,1.640352725982666,-0.9352100491523743,0.700604259967804
1783339095904720000,12.139719970703124,1.5883742570877075,0.053790975362062454,1.6314470767974854
1783339095914692900,12.14969287109375,1.4256681203842163,-0.007375978399068117,1.9329988956451416
1783339095924665600,12.15966552734375,1.1417027711868286,-0.9206261038780212,1.8192259073257446
1783339095934638800,12.169638916015625,0.871574878692627,-1.6968663930892944,1.590574860572815
1783339095944610800,12.17961083984375,0.8786489963531494,-2.162116527557373,1.374169945716858
1783339095954583600,12.18958349609375,0.9301608800888062,-2.493630886077881,1.103934407234192
1783339095964556800,12.199556884765625,0.9421342611312866,-2.678419828414917,0.8154100179672241
1783339095974529800,12.20952978515625,0.858430027961731,-2.633859872817993,0.496301531791687
1783339095984502800,12.219502685546875,0.7292043566703796,-2.4344594478607178,0.21784654259681702
1783339095994475800,12.229475830078124,0.6813558340072632,-2.106895685195923,0.0466897077858448
1783339096004448800,12.23944873046875,0.6868236660957336,-1.8153573274612427,-0.04509712755680084
1783339096014421800,12.249421875,0.7061736583709717,-1.7298487424850464,-0.10466405749320984
1783339096024394800,12.259394775390625,0.7304580807685852,-1.753201961517334,-0.13655593991279602
1783339096034367700,12.26936767578125,0.7773917317390442,-1.7309038639068604,-0.10359746217727661
1783339096044340700,12.2793408203125,0.8295339345932007,-1.6683571338653564,-0.0738372728228569
1783339096054313700,12.289313720703126,0.8612759113311768,-1.4942082166671753,-0.03823240101337433
1783339096064285700,12.29928564453125,0.8296708464622498,-1.1504087448120117,0.08552415668964386
1783339096074258700,12.3092587890625,0.7669890522956848,-0.8091842532157898,0.2659013867378235
1783339096084232000,12.31923193359375,0.6915245056152344,-0.6108062863349915,0.43892228603363037
1783339096094204700,12.32920458984375,0.6430123448371887,-0.5135726928710938,0.6005522012710571
1783339096104177700,12.339177734375,0.6172531843185425,-0.4244626462459564,0.7721840143203735
1783339096114150700,12.349150634765625,0.578364908695221,-0.30747318267822266,0.9349798560142517
1783339096124124000,12.3591240234375,0.5335042476654053,-0.24497096240520477,1.02997624874115
1783339096134097000,12.369096923828126,0.5013833045959473,-0.20748645067214966,1.021740436553955
1783339096144069600,12.379069580078125,0.490770548582077,-0.13790392875671387,0.9051746129989624
1783339096154042600,12.389042724609375,0.4771452844142914,-0.04996688291430473,0.7021018862724304
1783339096164015900,12.399015869140625,0.4351971447467804,0.027383020147681236,0.449936181306839
1783339096173988900,12.40898876953125,0.38368308544158936,0.022272147238254547,0.15300332009792328
1783339096183960600,12.418960693359375,0.3418516218662262,-0.08299188315868378,-0.1621110588312149
1783339096193933800,12.428933837890625,0.27586302161216736,-0.21248169243335724,-0.45042112469673157
1783339096203906800,12.43890673828125,0.20337314903736115,-0.2763693928718567,-0.6999266743659973
1783339096213879800,12.4488798828125,0.12238161265850067,-0.1854727864265442,-0.8956458568572998
1783339096223852800,12.458852783203126,0.023315755650401115,0.08393898606300354,-1.0443378686904907
1783339096233825800,12.46882568359375,-0.11368311196565628,0.4390965402126312,-1.1646839380264282
1783339096243798800,12.478798828125,-0.34712740778923035,0.8768103122711182,-1.238776445388794
1783339096253771800,12.488771728515625,-0.7571609616279602,1.5251100063323975,-1.2010865211486816
1783339096263744800,12.498744873046874,-1.4677892923355103,3.0664892196655273,-0.9894105792045593
1783339096273717800,12.5087177734375,-2.563514471054077,5.512919902801514,-0.44866472482681274
1783339096283690800,12.518690673828125,-3.700622320175171,6.491971969604492,0.3144034445285797
1783339096293663700,12.528663818359375,-4.421631336212158,5.806149482727051,1.0733342170715332
1783339096303635700,12.5386357421875,-4.169027328491211,4.224681377410889,1.3896632194519043
