time,seconds_elapsed,z,y,x
1783338514931875800,0.065875732421875,-0.04210252719223499,-0.17114830156117677,-0.7828127574563026
1783338514941848800,0.075848876953125,-0.1595633699685335,-0.30513650076836346,-0.5838024893708527
1783338514951821800,0.08582177734375,-0.28289339703917504,-0.3912970731347799,-0.15946401951359584
1783338514961794800,0.095794921875,-0.3426163365960121,-0.5616603617981076,-0.03264613206088543
1783338514971767800,0.105767822265625,-0.0784527744680643,-0.4360089060425758,-0.23320889028534292
1783338514981741000,0.115740966796875,0.16980419347584247,-0.18672142600715158,-0.6722660779826343
1783338514991713800,0.1257138671875,0.20468670628666877,-0.12212678876072168,-1.2866450535334646
1783338515001686800,0.135686767578125,0.3203647572994232,0.20022300487607717,-1.7436777506433427
1783338515011659800,0.14565966796875,0.6737105777025222,0.2508326636508107,-2.3694798913538455
1783338515021633000,0.155633056640625,0.9966396325320005,0.1108024078004062,-2.760016209249198
1783338515031605800,0.165605712890625,1.081903256058693,-0.03838774445280432,-2.636734405234456
1783338515041578800,0.175578857421875,0.7764239332020282,0.025818770258873698,-1.9860506289847193
1783338515051551700,0.1855517578125,0.22053134115040302,0.1241353521041572,-1.4623843361467121
1783338515061525000,0.19552490234375,-0.05375497106313705,0.05115472543686628,-1.3085557104378938
1783338515071498000,0.205498046875,-0.057794601842761036,-0.15400252097100017,-1.1450837887234986
1783338515081470700,0.215470703125,-0.09397124611735343,-0.27973361783400175,-1.000612554750964
1783338515091443700,0.225443603515625,-0.24890169558823108,-0.39470834288299084,-0.813971062112227
1783338515101416700,0.235416748046875,-0.5908236201792955,-0.35241014698818324,-0.3318751623511314
1783338515111390000,0.245389892578125,-0.8002180657655,-0.06377411464378237,0.17071743586324153
1783338515121363000,0.255363037109375,-1.0929296769857406,0.23574805337414145,0.3316654651232064
1783338515131335700,0.265335693359375,-1.4361995090544224,0.5763415058404207,0.0407915541915223
1783338515141308700,0.27530859375,-1.2678706488281488,1.1050624517194927,-0.8380817132789641
1783338515151282000,0.285281982421875,-0.9212982680827378,1.6404045693039893,-1.457934955522418
1783338515161255000,0.2952548828125,-0.1590355467021465,2.294074521757662,-1.551438876388967
1783338515171228000,0.305227783203125,0.6516302633196115,1.8884058089211582,-1.0496334099642932
1783338515181200600,0.31520068359375,0.9557207621663808,0.9516200488492846,-0.4493965762082487
1783338515191174000,0.325173828125,0.8494605278402566,0.7056316103592515,-0.3810965085726231
1783338515201147000,0.33514697265625,0.10168576601743698,0.33586306294351814,-0.8151804379019886
1783338515211119900,0.345119873046875,-0.681392948898673,0.08318126429468393,-0.9021510114770382
1783338515221092900,0.3550927734375,-0.5004536134243012,-0.43078737200200556,-1.1113524187091737
1783338515231065900,0.36506591796875,0.12970423827767372,-0.54482408554852,-1.233585809649527
1783338515241038800,0.375038818359375,0.3432289155364036,-0.3488265894129872,-1.1562831550646573
1783338515251011800,0.38501171875,0.14611644389629364,-0.5036027251049876,-1.30590037362352
1783338515260984800,0.39498486328125,0.29448563515543935,-0.49674219168573613,-1.3690537260204554
1783338515270957800,0.404957763671875,-0.015740589967370034,0.16250994481444359,-1.0198749621689318
1783338515280930800,0.414930908203125,1.9556705421596765,0.8716378728568553,0.09154098676312715
1783338515290903800,0.42490380859375,2.634437234207988,1.5043518387824295,0.9694584878787398
1783338515300876800,0.434876708984375,3.4731904900729655,1.546571270352602,1.0864442604891955
1783338515310849500,0.444849609375,3.1140573184400795,1.4504527830734848,1.6172751842595636
1783338515320822300,0.454822265625,1.6524229238778352,0.7826499681100249,1.404574098343402
1783338515330795300,0.464795166015625,0.8447510349750519,-0.02294979069381952,0.20633074716664848
1783338515340768300,0.474768310546875,0.655098231691122,-0.07303133394122123,-0.8704401875048875
1783338515350741500,0.484741455078125,0.07898176677823067,-0.021529402501881123,-1.1454651161912828
1783338515360714500,0.494714599609375,-0.7418576467335224,0.14746610493957996,-0.6658169018432497
1783338515370687200,0.504687255859375,-1.3249322602212428,0.8903703381165862,-0.11805603219047188
1783338515380660200,0.51466015625,-1.5400830773770808,1.8564485359072684,0.08767013667915016
1783338515390633500,0.524633544921875,-1.2116507489562034,2.353505492630601,-0.1350977861505933
1783338515400606500,0.5346064453125,-0.9765776722341776,1.3492173911720513,-0.09627363217505626
1783338515410579500,0.544579345703125,-0.0687368516176939,-0.02668079391568899,-0.14937948254654182
1783338515420552200,0.55455224609375,0.9250076439946889,-0.035144963139295576,-0.38809940960463135
1783338515430525200,0.564525146484375,1.2753104434400797,0.3712283908352256,-0.3024491979131475
1783338515440498400,0.57449853515625,1.3362930276691913,0.85607497754395,0.1591928561557084
1783338515450472400,0.584472412109375,1.5832681391090153,1.496822027799487,1.093102403204143
1783338515460445400,0.594445556640625,1.7153998967945574,1.8803443752795457,1.6448213628329336
1783338515470418200,0.604418212890625,1.4169021033883094,1.7439906159847973,1.012275008559227
1783338515480391200,0.61439111328125,1.0048054033309222,1.1827522789910434,0.16146204319670796
1783338515490364400,0.624364501953125,0.8706862712204456,0.6174845403507352,-0.5858506540723145
1783338515500337400,0.63433740234375,0.7333487615853548,0.32292700900286436,-1.2196607446715235
1783338515510310400,0.644310302734375,0.5966290915876626,0.25727526391893624,-1.4022192057803273
1783338515520283100,0.654283203125,0.4573603216290474,0.2934253124475479,-1.2727388393864034
1783338515530256400,0.66425634765625,0.5043360078155994,0.5897846325203776,-0.8466118604108691
1783338515540229400,0.6742294921875,0.5309399371027946,1.0472188961684703,0.03060527388304472
1783338515550202400,0.684202392578125,0.6417080042421818,1.4841647908002138,0.8930535858511924
1783338515560175400,0.69417529296875,0.7920739222764969,1.8294006622448562,1.2317346288248896
1783338515570148400,0.7041484375,0.8008528565376997,1.8471435319453477,1.2798930950552225
1783338515580121300,0.714121337890625,0.870942876330018,1.5525696339845656,1.143640165786445
1783338515590094300,0.72409423828125,1.0228881725102663,1.43662357968539,1.0855936350092292
1783338515600067300,0.7340673828125,1.1005483352959156,2.0074308322742582,1.6169614421352743
1783338515610040300,0.744040283203125,1.035369468420744,2.8574937099218367,2.6388778470039367
1783338515620013300,0.754013427734375,0.9041209233105182,3.309562939405441,3.51128378162384
1783338515629986300,0.763986328125,0.781122320151329,3.1940286807775498,3.5463147629946468
1783338515639959300,0.773959228515625,0.9806985515564679,2.8212530605003234,2.6287328850865364
1783338515649932300,0.783932373046875,1.6511983505189418,2.511700496855378,2.208532373550534
1783338515659905500,0.793905517578125,1.8818658857583999,2.5085142680346966,2.624592716541886
1783338515669878300,0.803878173828125,1.8072294547080994,2.8726453940853474,3.0741426566809413
1783338515679851300,0.813851318359375,1.9576064786583185,3.2748040529742837,3.7087095569968223
1783338515689824300,0.82382421875,2.2090520135104654,3.772393801400065,4.444709709873795
1783338515699797500,0.833797607421875,2.074517286336422,4.285338647606968,4.8730303995013236
1783338515709770500,0.8437705078125,1.2548200285971165,4.883585695785284,4.565632675802707
1783338515719743200,0.8537431640625,0.19627689759880304,5.104238032966852,3.5770056693345307
1783338515729716200,0.86371630859375,-0.6541629966676235,5.070694659805298,2.5699007568895817
1783338515739689500,0.873689453125,-1.1073816884472965,4.964767018434405,2.10320503616035
1783338515749662500,0.883662353515625,-1.5065844201400875,4.982779644986987,1.787885871812701
1783338515759635500,0.893635498046875,-1.8413994353353975,4.956358086529374,1.5640367844164371
1783338515769608200,0.903608154296875,-2.334710775789618,4.726815171405673,0.9699509475708007
1783338515779581200,0.913581298828125,-2.610473005774617,4.111079812809825,-0.4946218385308981
1783338515789554400,0.923554443359375,-2.319222699278593,2.8813550625026223,-2.013245948293805
1783338515799527400,0.93352734375,-1.6846435240030289,2.0519684776589275,-3.239464736306667
1783338515809500200,0.943500244140625,-1.5106617525815962,1.800773410436511,-3.8356355627328154
1783338515819473200,0.95347314453125,-1.9014824403762816,1.7437690821886063,-3.6494291005104778
1783338515829446400,0.9634462890625,-2.4490496871531007,2.1682699212670324,-3.18214710432589
1783338515839419400,0.97341943359375,-2.922173395103216,2.300906705865264,-2.8665204814642666
1783338515849392400,0.983392333984375,-2.9990567282974716,1.8601050125882028,-3.152891783747077
1783338515859366400,0.993366455078125,-2.5740356647372242,0.8996101678878068,-4.773376431572437
1783338515869339100,1.003339111328125,-1.7714836030662058,-0.5369254412531852,-6.942019277805089
1783338515879312400,1.0133125,-0.760687434887886,-1.586924323529005,-7.954941352096199
1783338515889285400,1.023285400390625,0.3557622338950634,-2.220155591326952,-7.96519795769453
1783338515899258400,1.03325830078125,1.364972009664774,-2.549208097472787,-7.718957005748153
1783338515909231400,1.0432314453125,2.1688065123617646,-2.6051146936118603,-7.647185316479206
1783338515919204400,1.053204345703125,2.9011925663948057,-2.592273916739225,-7.7655965918481344
1783338515929177300,1.06317724609375,3.3111750507771966,-3.01396145196259,-7.932331460881232
1783338515939150300,1.073150390625,3.3328315867900846,-3.2824288487643,-8.427090077534318
1783338515949123300,1.083123291015625,3.1491093425989147,-3.2294121288478372,-9.054041826671362
1783338515959096300,1.093096435546875,2.8345044640004633,-3.362538158267736,-9.684055885988473
1783338515969069300,1.1030693359375,2.7390976321220397,-3.6448359275013207,-9.857889188849926
1783338515979042300,1.113042236328125,3.5246851149886846,-3.733281103673577,-9.493280800676345
1783338515989015300,1.123015380859375,4.481162248480319,-3.7562124819278715,-8.324204288077354
1783338515998988300,1.13298828125,5.117459918111562,-3.634014673757553,-6.603684564051032
1783338516008961500,1.14296142578125,5.153810749909281,-3.5559663884371515,-4.9542076304972165
1783338516018934300,1.152934326171875,6.0537897511094805,-3.1782226243585345,-2.7524025193750856
1783338516028907300,1.1629072265625,9.75280618160963,-1.7282541176706552,1.2220792039901018
1783338516038880300,1.17288037109375,10.025807130187749,-0.580858106482029,4.163388092195987
1783338516048853500,1.182853515625,7.010989938178658,0.41324996174573897,5.295522236844897
1783338516058826500,1.192826416015625,4.543759866690635,1.1989929274350404,4.938403912165761
1783338516068799200,1.20279931640625,3.27390593509078,1.521110081359744,3.5145623649030924
1783338516078772200,1.212772216796875,3.131277917832136,1.677296668371558,2.101552008256316
1783338516088745500,1.222745361328125,3.043137862086296,1.5913549994528293,1.2570412117779255
1783338516098718500,1.232718505859375,2.4173545722067353,1.1136626684129238,0.6837561708986759
1783338516108691200,1.242691162109375,1.651778196233511,0.6398305199325084,0.28806641576290126
1783338516118664200,1.252664306640625,1.0692809442423283,0.29194179589152336,-0.23900281738638876
1783338516128637400,1.262637451171875,0.8727741103451698,-0.023398411244153976,-0.6106190384954214
1783338516138610400,1.2726103515625,0.08346154254078865,0.08861001134514808,-0.49486967581212515
1783338516148583400,1.28258349609375,-1.0350456432938575,0.3232669084817171,-0.14857318939864633
1783338516158556200,1.29255615234375,-2.329405070596933,0.6743699183940887,0.15855156257748604
1783338516168530200,1.3025302734375,-3.161637984782457,0.6249684663653373,-0.24286709159910677
1783338516178503200,1.312503173828125,-3.7620904340505597,1.0263736765384674,-0.5755605845957994
1783338516188476400,1.322476318359375,-3.6948926285684105,2.31928407407701,-0.8351718902468681
1783338516198449400,1.332449462890625,-3.185618579828739,3.002370967411995,-0.5205430462509394
1783338516208422400,1.34242236328125,-2.0015935044229027,2.5731390081584453,-0.09877776961624622
1783338516218395100,1.35239501953125,-0.3316762787781656,1.7445599403053522,-0.23873978253602982
1783338516228368400,1.362368408203125,0.2936895163416862,1.1590145527899265,-0.2599935829669237
1783338516238341400,1.37234130859375,0.4248572513006627,0.5353069001406431,-0.16526362743675707
1783338516248314400,1.382314453125,0.15188443283848463,0.14075111747086047,0.004347673815488815
1783338516258287400,1.392287353515625,-0.11898279164656995,0.25365561211705207,-0.007135843229293823
1783338516268260400,1.40226025390625,-0.11626030788011849,0.3258808903723955,-0.3980196593880653
1783338516278233300,1.4122333984375,0.015589198797941206,0.16730010170042514,-0.8697370076715946
1783338516288206300,1.422206298828125,0.5088251359283924,0.3874316298782825,-1.7164730789840221
1783338516298179300,1.432179443359375,1.2191969265520572,0.7501952669680119,-2.8234289432346817
1783338516308152300,1.44215234375,1.461767665553093,0.4205331044912338,-3.4848026019334792
1783338516318125800,1.452125732421875,1.980033999043703,-0.1443050105601549,-4.35710156904757
1783338516328098800,1.462098876953125,2.273202121859789,-0.7566811218559741,-4.673476964449883
1783338516338071800,1.47207177734375,1.802231792551279,-1.168812308704853,-4.074057949882746
1783338516348044800,1.482044921875,0.44310156771726905,-1.2644593790799379,-2.7935218807488678
1783338516358018000,1.49201806640625,0.5690333017189055,-1.8994120638430116,-2.8952567466050385
1783338516367990800,1.50199072265625,0.3974152637541294,-2.9354239218205214,-3.157649207407236
1783338516377963800,1.5119638671875,-1.5227648628294468,-3.2391432492673395,-1.5938941625416279
1783338516387936800,1.521936767578125,-2.568924605333805,-2.8146248745322224,0.8998848931759595
1783338516397909800,1.53190966796875,-2.6669875046789646,-2.8865859488934276,2.2977736685365437
1783338516407883000,1.541883056640625,-2.5139912381410596,-3.1071494387477636,3.1826001087903975
1783338516417857000,1.55185693359375,-1.8354221144914626,-3.4787943014293905,3.5535493904232975
1783338516427829800,1.561829833984375,0.451886785588786,-3.344095908126235,4.150784046688676
1783338516437802800,1.571802734375,2.4970070778533815,-2.8078526039183136,4.385778797477483
1783338516447775700,1.581775634765625,3.4573359183371064,-2.4662287854909897,4.078555261301994
1783338516457749000,1.5917490234375,3.075594024533033,-2.2896336167007685,3.787823425722122
1783338516467722000,1.601721923828125,0.8398622400201856,-2.1554367431789636,3.404130397850275
1783338516477694700,1.61169482421875,-1.2317046720780431,-1.926002549126744,2.8040461973726747
1783338516487667700,1.621667724609375,-2.6575077286720274,-1.3463053031176329,2.578580322429538
1783338516497641000,1.631640869140625,-3.138984254425764,-0.8688076178669929,2.6141946566462515
1783338516507614000,1.641614013671875,-2.566408823120594,-0.4657242453485727,2.3254139551341533
1783338516517587000,1.6515869140625,-1.8268718744195998,-0.3142091572791338,2.1448773552417753
1783338516527559700,1.6615595703125,-1.14114586475268,-0.7430863117456435,2.7415561311900616
1783338516537533000,1.671532958984375,-0.23404621789231894,-0.7908616238772869,3.147749744683504
1783338516547506000,1.681505859375,0.26675372475162146,0.01958791304528713,2.912100329378247
1783338516557479000,1.69147900390625,0.9536638296365737,0.0613210224032402,3.33474238884747
1783338516567451600,1.70145166015625,1.6564156467758118,-0.9079214846372604,3.6131221078544855
1783338516577424600,1.711424560546875,1.2470727754712103,-2.1035463969439268,2.527666712272167
1783338516587398000,1.72139794921875,0.8812859911680221,-2.8927567464828488,0.5606950238972902
1783338516597371000,1.731370849609375,0.5590788208723068,-4.26914797578454,0.7023188325494527
1783338516607343900,1.74134375,-0.19075404252409933,-3.2890228402018544,-0.10468787044286727
1783338516617316600,1.751316650390625,-0.5975426993012428,-1.7386732203543185,-0.4396487238496542
1783338516627290600,1.76129052734375,-1.568770242679119,-0.06158873342871666,-0.2826531585425138
1783338516637264000,1.771263916015625,-2.181861224246025,1.1839742220014333,-0.08178162662982941
1783338516647236900,1.78123681640625,-2.3451612965248523,2.2760768005132674,0.0432306544393301
1783338516657209900,1.7912099609375,-1.692241139525175,3.2007951061725612,-0.06951894190609455
1783338516667182800,1.801182861328125,-1.2305366512119769,3.511192596209049,-0.5053349557250738
1783338516677155800,1.81115576171875,-1.168131998290494,3.800395322525501,-1.2779828775197266
1783338516687128800,1.82112890625,-0.4603577498793602,4.118589165526628,-1.997583684259653
1783338516697101800,1.831101806640625,-0.027858313262462613,3.9204508579701183,-2.3045056071400642
1783338516707074800,1.84107470703125,0.24300445424318312,4.106971208447217,-2.203832817557454
1783338516717047800,1.8510478515625,0.6525052925884723,4.009373588526248,-2.532959557983279
1783338516727020800,1.861020751953125,1.1008604699850082,3.3702357270330188,-3.007099749499559
1783338516736993800,1.870993896484375,1.292387250447273,2.811671869945526,-3.0681501382678746
1783338516746966800,1.880966796875,0.6872644712805748,2.2800877897202967,-2.5191356152921913
1783338516756939800,1.890939697265625,0.22563955100961028,1.9314999774992465,-1.5075111795961855
1783338516766913000,1.9009130859375,0.32399697632193564,1.6679004789948462,-0.5949544363737106
1783338516776885800,1.9108857421875,0.5111409751227125,1.4785048653423785,0.1754670415431261
1783338516786858800,1.920858642578125,0.5378383548470214,1.423909936323762,0.7902373544991016
1783338516796831700,1.930831787109375,0.41162148376107216,1.3568243590444327,1.0946154381155968
1783338516806805000,1.940804931640625,0.2893547020077705,1.133274546855688,1.0892319915115833
1783338516816778000,1.950778076171875,0.25346392546985297,0.6322212139725685,0.94350659275949
1783338516826752000,1.960751953125,0.1433504497816786,0.011425649377703666,0.8967261368840932
1783338516836724700,1.970724853515625,0.11462236794736236,-0.349403220257163,1.1035457635462282
1783338516846697700,1.98069775390625,0.20749354386832564,-0.6017313831627369,1.3122475506931544
1783338516856671000,1.9906708984375,0.32599951178338377,-0.9094733902543782,1.5392980644792318
1783338516866644000,2.00064404296875,0.40282910549640655,-1.0796645372211933,1.5953285792589187
1783338516876616700,2.01061669921875,0.23374559097792952,-1.1291425616174935,1.3692787669479847
1783338516886589700,2.020589599609375,0.04543722457289696,-1.308411918053031,1.1310244298413394
1783338516896562700,2.030562744140625,-0.0989782240917906,-1.5114152012974023,1.0849322484910489
1783338516906536000,2.040535888671875,-0.1928162357509136,-1.7502812405616044,1.1868243507355452
1783338516916509000,2.050509033203125,-0.5952654020190239,-2.7263340121388433,1.000441362902522
1783338516926481700,2.060481689453125,-0.6585176847457885,-3.6382062802284953,0.8498208855852484
1783338516936454700,2.07045458984375,-0.4213865064501762,-4.07656788687706,0.8451074471972883
1783338516946428000,2.080427978515625,-0.18737316791415212,-4.513666341722011,0.8034526637725532
1783338516956401000,2.09040087890625,-0.05464227529168129,-4.783214519497752,0.7081698235999793
1783338516966374000,2.100373779296875,0.1228033728480339,-5.063921220147609,0.40574543133452534
1783338516976346600,2.1103466796875,0.09258360028439201,-5.3702545294851065,-0.021260686829406766
1783338516986320000,2.12031982421875,-0.05369768791794777,-5.8921361308634275,-0.6131202807266265
1783338516996292900,2.13029296875,-0.7869488343477249,-6.391107981297373,-1.0272002635557205
1783338517006265900,2.140265869140625,-0.9803975227832794,-6.6596127875000235,-1.691608979101479
1783338517016239900,2.150239990234375,-0.3986947821706533,-7.073497540017962,-2.5075372396960853
1783338517026212900,2.160212890625,-0.4115624105175957,-7.286376320588588,-3.0200331730917096
1783338517036185900,2.170185791015625,-0.5614005418181419,-7.2641416924268,-3.3224677214249967
1783338517046158800,2.180158935546875,-0.6367729589927941,-6.400275038093328,-3.5214527089387175
1783338517056131800,2.1901318359375,-1.9785341158747671,2.60561796695888,-1.0617007182464002
1783338517066104800,2.200104736328125,-1.2263047127306461,26.0245207949996,7.4955170836746685
1783338517076077800,2.210077880859375,-1.9703221678465603,29.5854094422698,12.571532061719894
1783338517086050800,2.22005078125,-3.135499919441342,23.347405864059922,9.419102634787558
1783338517096023800,2.23002392578125,-1.9681933391243218,18.717286395299432,5.6581403279840945
1783338517105996800,2.239996826171875,-0.9691378776222467,9.252454859516025,1.9914488347664474
1783338517115969800,2.2499697265625,-0.008857260194420813,2.9779619178205725,0.08786182332634926
1783338517125943000,2.259943115234375,1.088697811569646,-0.98393972543478,-1.1036363644391298
1783338517135915800,2.269915771484375,1.90788237054646,-3.5510540664762256,-1.776446193909645
1783338517145888800,2.279888671875,2.367117838397622,-4.748673951992393,-1.9138968085303902
1783338517155861800,2.28986181640625,2.865650712892413,-4.547739876237511,-1.434497381311655
1783338517165835000,2.2998349609375,3.2966157795488833,-3.117680185112357,-0.4121069291904568
1783338517175809000,2.30980908203125,3.3560949734777212,-1.660903167453408,0.3035638446241617
1783338517185781800,2.31978173828125,3.011050532951951,-0.8396288696557282,0.03830985691100359
1783338517195754800,2.329754638671875,2.438314358127117,-0.42588732500076293,-0.6087292792260647
1783338517205727700,2.339727783203125,1.81869777418375,0.23789339483976363,-0.5741650385841727
1783338517215701000,2.349700927734375,1.1497085259146989,1.1279811166226863,0.06943973919004201
1783338517225674000,2.359674072265625,0.7096458144366741,1.5850614522665738,0.45520460489988324
1783338517235646700,2.369646728515625,0.45077275993227955,1.3608902933090925,-0.04806669629365205
1783338517245619700,2.37961962890625,0.15368841352052987,0.8386012801736593,-1.1667746653974056
1783338517255592700,2.3895927734375,-0.32342348728291687,0.5482195732057095,-1.9099916177853942
1783338517265566000,2.39956591796875,-0.9311070568483323,0.5370031826645135,-1.9703408725470304
1783338517275539000,2.4095390625,-1.3562028661452232,0.3692985918164253,-1.8690970050781963
1783338517285511700,2.41951171875,-1.5009820700883865,0.04614040440618992,-1.930452806533873
1783338517295484700,2.429484619140625,-1.5902257031619549,-0.23215865058004856,-1.8490911588817833
1783338517305458000,2.4394580078125,-1.7160884635806082,-0.38112580773234367,-1.3033347609192132
1783338517315431000,2.449430908203125,-1.5994576418876647,-0.4565297160238027,-0.9710556939423084
1783338517325404000,2.45940380859375,-1.254412616840005,-0.5283697943538427,-1.1843164595678448
1783338517335378000,2.4693779296875,-1.083554018940404,-0.4858382280945778,-0.8897136277735233
1783338517345350700,2.4793505859375,-1.0106904427815229,-0.029670915642380714,0.07772942862957716
1783338517355324000,2.489323974609375,-0.5415962826084345,0.24607553225159642,0.6812739986941218
1783338517365297000,2.499296875,-0.0949438174765557,0.26585575299859043,0.9877733122482896
1783338517375270000,2.509269775390625,0.17496259915232656,0.09927169061303139,1.2297004926487802
1783338517385243000,2.519242919921875,0.3695685678642243,-0.08611059574484825,1.5019064914569258
1783338517395216000,2.5292158203125,0.5390260667942464,-0.19731004003882407,1.671546726542711
1783338517405188900,2.53918896484375,0.6249211200922727,-0.29920564941465855,1.6863266547843814
1783338517415161900,2.549161865234375,0.6519106876961887,-0.39292087494432926,1.5797332429811357
1783338517425134800,2.559134765625,0.6313800869733095,-0.4290577717304229,1.3362854288846253
1783338517435107800,2.56910791015625,0.5868618769414723,-0.3956459159940481,0.9438149280562996
1783338517445080800,2.579080810546875,0.4459522809732705,-0.34562837789356704,0.539076189546287
1783338517455053800,2.5890537109375,0.23549802413582802,-0.2712655030876398,0.27896804028898475
1783338517465026800,2.59902685546875,0.021059008511155844,-0.20876023933589458,0.14467179804593325
1783338517474999800,2.608999755859375,-0.17417188716605306,-0.12237082664966582,0.04709405186921358
1783338517484973800,2.618973876953125,-0.3129308809716254,-0.07551672101616859,-0.02200783366858959
1783338517494946800,2.62894677734375,-0.40766134795844555,-0.039536476096510884,-0.09636632456034422
1783338517504919800,2.638919921875,-0.4558832348138094,-0.010629530563950537,-0.1598448172584176
1783338517514892800,2.648892822265625,-0.4831348143547773,-0.013057634493708609,-0.24573797086030244
1783338517524865800,2.65886572265625,-0.4547586877632886,0.012844284003973007,-0.3104652945756912
1783338517534839000,2.668839111328125,-0.4354945998448878,-0.012182020702958107,-0.3366287866190076
1783338517544811800,2.678811767578125,-0.4240460810482502,-0.04904021750092506,-0.35073797599226236
1783338517554784800,2.68878466796875,-0.3984609734147787,-0.10893266840577125,-0.3013818244099617
1783338517564757800,2.6987578125,-0.3821253401637077,-0.16024609153568745,-0.21556524317562578
1783338517574730800,2.708730712890625,-0.34839491999745364,-0.22160160073041915,-0.1354801913306117
1783338517584704000,2.7187041015625,-0.3129360686033964,-0.24349895976185798,-0.0800499805316329
1783338517594676700,2.7286767578125,-0.24586926908977327,-0.1843161184310913,-0.07428717922121286
1783338517604649700,2.738649658203125,-0.14497370360195636,-0.07649754874706267,-0.0686538495093584
1783338517614622700,2.748622802734375,-0.03932027606256306,0.054476855596899985,-0.13896598761975765
1783338517624596700,2.7585966796875,0.09963935488164424,0.1746300061970949,-0.20858196015954017
1783338517634570000,2.768570068359375,0.24443711739480495,0.2206628585755825,-0.3175426856160164
1783338517644543000,2.77854296875,0.37736908554732795,0.24238135390877721,-0.4455117706641555
1783338517654515700,2.788515625,0.5214905562341213,0.23220775041878222,-0.581147152556479
1783338517664488700,2.79848876953125,0.6146260821796953,0.23331425035595893,-0.7131736963018774
1783338517674462000,2.8084619140625,0.6818132201373577,0.22789280982911586,-0.8404615210875869
1783338517684435000,2.81843505859375,0.6995978831529617,0.2018050133705139,-0.9632537880197167
1783338517694408000,2.828407958984375,0.676648384720087,0.23707857132554053,-1.0654203232914208
1783338517704380700,2.838380615234375,0.6375112832047045,0.24852350992560385,-1.1222595241054891
1783338517714354000,2.84835400390625,0.55895380625315,0.2618944481521845,-1.1300605532452463
1783338517724327000,2.858326904296875,0.47174350563809275,0.2461164487838745,-1.0935583302780985
1783338517734300000,2.8682998046875,0.35983678985759615,0.2047200240343809,-1.0070140192911028
1783338517744273000,2.87827294921875,0.27904958109259603,0.118511813133955,-0.8681254808217287
1783338517754245600,2.88824560546875,0.18646248281002042,0.06615209582149982,-0.7204688217461108
1783338517764219000,2.898218994140625,0.10894150929935276,0.05415419951379299,-0.5597001676410436
1783338517774193000,2.90819287109375,0.06060629826262593,0.06710428197979927,-0.3912342370316386
1783338517784166000,2.918165771484375,0.03588745206966996,0.04559036930799484,-0.2675660640478134
1783338517794139000,2.928138916015625,-0.01748655685186386,0.028821605336666105,-0.12676906160861254
1783338517804111600,2.938111572265625,-0.06581555734351277,-0.009016834670305252,0.003632511283457279
1783338517814084900,2.9480849609375,-0.12797419961467385,-0.05923311021327972,0.13571195425987242
1783338517824057900,2.958057861328125,-0.18056947924867273,-0.1198316635608673,0.23542817377001046
1783338517834030800,2.96803076171875,-0.20542904908657073,-0.19391572142541408,0.3258820594161749
1783338517844003800,2.97800390625,-0.21085333915762602,-0.21014789430201053,0.42193712607026096
1783338517853976800,2.987976806640625,-0.20791633585765956,-0.21567747137844562,0.5180553210884332
1783338517863949800,2.99794970703125,-0.1894049660027027,-0.226557177311182,0.5923579901397228
1783338517873922800,3.0079228515625,-0.1541658948391676,-0.25827041243612764,0.6638897331729531
1783338517883895800,3.017895751953125,-0.12242182618454098,-0.28768063131570815,0.6983493443965911
1783338517893868800,3.027868896484375,-0.06784253312647343,-0.30758243261575696,0.7326733465418219
1783338517903842800,3.0378427734375,-0.02169796400181949,-0.32820144227445125,0.668173986363411
1783338517913815800,3.04781591796875,-0.005331424155831337,-0.3424292895913124,0.560430527742207
1783338517923788800,3.057788818359375,-0.04398052295856177,-0.3418628878802061,0.4479869286060333
1783338517933761800,3.06776171875,-0.08149221522919833,-0.26254560553729533,0.2943228458091616
1783338517943734800,3.07773486328125,-0.11867489474117755,-0.1715805554986,0.14400602761358022
1783338517953708000,3.0877080078125,-0.14955810878276823,-0.08485562724769115,0.044450259362161154
1783338517963680800,3.0976806640625,-0.18031638127043842,-0.06029635553061962,-0.018692133249342442
1783338517973653800,3.10765380859375,-0.2113169380813837,-0.06368658249080181,-0.09774871882945299
1783338517983626800,3.117626708984375,-0.20131986020207404,-0.0597001432031393,-0.17638152603954077
1783338517993600000,3.12760009765625,-0.23608079245984553,-0.08490940326154231,-0.22637392969876527
1783338518003573000,3.137572998046875,-0.2679870659388602,-0.08046879046559334,-0.22644874850064514
1783338518013545700,3.147545654296875,-0.2743715793441981,-0.09209142372012138,-0.21879648018181322
1783338518023518700,3.157518798828125,-0.24820026932060718,-0.09928279652893543,-0.20729045904427765
1783338518033492700,3.16749267578125,-0.21581242286972702,-0.08102583982646465,-0.19173954643011093
1783338518043465700,3.1774658203125,-0.17470131786763668,-0.05885375550687313,-0.14828209749758242
1783338518053439000,3.18743896484375,-0.12050561729967593,-0.0370218629270792,-0.11355769785791635
1783338518063412000,3.197411865234375,-0.05517784347310662,-0.0014472761988639832,-0.10041296960264444
1783338518073384700,3.207384765625,0.017017624165862798,0.035060791987180706,-0.05969079085290432
1783338518083357700,3.217357666015625,0.05861512444540858,0.09211480459570884,-0.029427754536271094
1783338518093331000,3.2273310546875,0.12074220253452658,0.09869769011735915,-0.046778410048782824
1783338518103304000,3.237303955078125,0.16610300087034702,0.08047989638149738,-0.082317633202672
1783338518113276700,3.247276611328125,0.19391148364171384,0.0517921465575695,-0.07109072126746177
1783338518123249700,3.257249755859375,0.21349647407755254,-0.0230225636690855,-0.09995441218018532
1783338518133223000,3.267222900390625,0.19619652583897113,-0.0962602338373661,-0.12840659968256948
1783338518143196000,3.27719580078125,0.17248013468682766,-0.13885609750449657,-0.09770517194867133
1783338518153169000,3.2871689453125,0.1412238495491445,-0.1636895099878311,-0.10038111315965652
1783338518163143000,3.297142822265625,0.09228416981324553,-0.15275719708502292,-0.11038403625786304
1783338518173115600,3.30711572265625,0.037776919078081846,-0.12773849116265773,-0.12822656694054602
1783338518183089000,3.3170888671875,-0.006055573711916804,-0.08224632153213024,-0.1720788604095578
1783338518193062000,3.327061767578125,-0.028556743855401873,-0.008526420804858208,-0.22654957852661609
1783338518203035000,3.337034912109375,-0.03885258548557758,0.0372135861068964,-0.2762403688907623
1783338518213008000,3.3470078125,-0.04503324688188731,0.058735682085156435,-0.3298977247983217
1783338518222980900,3.35698095703125,-0.06242094646915793,0.0689373426258564,-0.3657674950808286
1783338518232953900,3.366953857421875,-0.056260231882333755,0.08125555692911147,-0.38205081362277266
1783338518242926800,3.3769267578125,0.0022165070056915284,0.06053484046161174,-0.3683750472307205
1783338518252899800,3.38689990234375,0.03735138714239001,0.05330313564240932,-0.3390457846328616
1783338518262872800,3.396872802734375,0.09066972035393119,0.059068275040388106,-0.2913756864413619
1783338518272845800,3.406845703125,0.14005553642213345,0.06695698246359824,-0.243636906927824
1783338518282818800,3.41681884765625,0.1635511244304478,0.04984744223058223,-0.20898557252436875
1783338518292792800,3.426792724609375,0.1914911246269941,0.03196867119073868,-0.1633113243252039
1783338518302765800,3.436765869140625,0.1938397335797548,0.040002340042591095,-0.1218839199155569
1783338518312738800,3.44673876953125,0.19259046417102216,0.011905541849136352,-0.07950812873989344
1783338518322712000,3.456712158203125,0.16509477367587386,0.01689092904627323,-0.036275136213004586
1783338518332684800,3.466684814453125,0.133470532008633,-0.012765958070755003,-0.009814999310672283
1783338518342657800,3.47665771484375,0.0989775299720466,-0.02557224815189838,-0.023401333853602407
1783338518352630800,3.486630859375,0.05129946766979992,-0.03650514557659626,-0.021441139696538446
1783338518362603800,3.496603759765625,0.006816109755635261,-0.04868775080144405,-0.034036125114560126
1783338518372577000,3.506576904296875,-0.04397942698001861,-0.04337210873663425,-0.03793400933593511
1783338518382549800,3.5165498046875,-0.10513554114513099,-0.05213000020980835,-0.027412323060631752
1783338518392522800,3.526522705078125,-0.16209376522898672,-0.06788461870253086,-0.0112476624622941
1783338518402495700,3.536495849609375,-0.19477423795089124,-0.10851765786409377,-0.010787643735110758
1783338518412469800,3.5464697265625,-0.21733386028334498,-0.13359013980031012,-0.005561141258478165
1783338518422443000,3.556443115234375,-0.2358072362154722,-0.17090426367223263,0.013254033848643302
1783338518432415700,3.566415771484375,-0.21519421790614723,-0.16538813059926033,0.027989538426697252
1783338518442388700,3.576388671875,-0.18692498575523495,-0.14622691853344438,0.032414369131624696
1783338518452361700,3.58636181640625,-0.13817797904722393,-0.1099538281470537,0.030701135472953316
1783338518462335000,3.5963349609375,-0.0841828425526619,-0.09808394213318825,0.037605508033931256
1783338518472308000,3.606307861328125,-0.05640285522341728,-0.08253741343319415,0.0405444840952754
1783338518482280700,3.61628076171875,-0.010014613536000251,-0.05722177039086818,0.0358256388798356
1783338518492253700,3.626253662109375,0.026366101943328973,-0.0363683674544096,0.0036661212921142577
1783338518502227000,3.63622705078125,0.05373918897211551,-0.022080314382910728,-0.029342706601321697
1783338518512200000,3.646199951171875,0.0655956309825182,-0.017210662519931794,-0.04643558796048164
1783338518522173000,3.6561728515625,0.08084814517199992,-0.023025486278533933,-0.07863514529764652
1783338518532145700,3.666145751953125,0.1024156877271831,-0.00497661936879158,-0.11768939083516597
1783338518542119700,3.67611962890625,0.11512918495833874,0.032841362372040744,-0.13185264848321676
1783338518552092700,3.6860927734375,0.1296089612096548,0.0420236167371273,-0.15130875184237957
1783338518562066000,3.69606591796875,0.11077625044584273,0.06602759265899658,-0.15380495257228613
1783338518572039000,3.706038818359375,0.08629749661907553,0.04962064773738384,-0.14089666342139243
1783338518582012000,3.716011962890625,0.06675590693354606,0.026950550767779347,-0.15333499697297812
1783338518591984600,3.725984619140625,0.04847732292115688,0.010087094250321388,-0.15694032798856497
1783338518601958000,3.7359580078125,0.033753947172313926,0.02627601250708103,-0.14475421563237906
1783338518611931000,3.745930908203125,0.04440795459039509,0.015257774886488914,-0.1330558867931366
1783338518621904000,3.75590380859375,0.02086692000515759,-0.00799216779768467,-0.13180734803676605
1783338518631876900,3.765876953125,-0.00595043283700943,-0.0535918894559145,-0.11783230643719433
1783338518641849900,3.775849853515625,-0.03829612064659595,-0.08107786227464675,-0.12147037067860364
1783338518651822800,3.78582275390625,-0.08709609965085983,-0.11476093616783618,-0.10029080452769994
1783338518661796900,3.795796875,-0.08837503354549407,-0.1045341411858797,-0.08862579343616962
1783338518671769900,3.805769775390625,-0.08641805425882339,-0.11005261234641074,-0.0849079419568181
1783338518681742800,3.815742919921875,-0.09643266779482364,-0.1216138708025217,-0.0770715492427349
1783338518691715800,3.8257158203125,-0.1066518639922142,-0.11658815159499644,-0.04662292722612619
1783338518701688800,3.835688720703125,-0.1247476387836039,-0.11114566828012466,-0.022647300615906713
1783338518711661800,3.845661865234375,-0.11366729571223258,-0.11324936256110668,-0.07051321364045143
1783338518721634800,3.855634765625,-0.16505962929725645,-0.1942103204578161,-0.1436690507441759
1783338518731607800,3.86560791015625,-0.19556407315433025,-0.16178163053989408,-0.04037760309576988
1783338518741580800,3.875580810546875,-0.16951602418422698,-0.10743804593384265,-0.02075958717316389
1783338518751553800,3.8855537109375,-0.14527897015884517,-0.06461480325162411,-0.05681581993848085
1783338518761526800,3.89552685546875,-0.1339187872327864,0.0017746084570884704,-0.07497223887592554
1783338518771499800,3.905499755859375,-0.09151092041842639,0.04788929390013218,-0.08871522528529166
1783338518781473800,3.915473876953125,-0.03512092467658222,0.03699205231070518,-0.12134557525515556
1783338518791447000,3.925447021484375,0.04415609872117638,0.057466100540757174,-0.15732669695764778
1783338518801419800,3.935419677734375,0.11548515878915785,0.05358838232457638,-0.17166998734772204
1783338518811392800,3.945392822265625,0.1974994251310825,0.0785135647445917,-0.14886223547309635
1783338518821365800,3.95536572265625,0.2718533859781921,0.08201192825436592,-0.20316636485159395
1783338518831339000,3.965339111328125,0.32524734170921143,0.11596154412925243,-0.2413976035684347
1783338518841312000,3.97531201171875,0.3661614628344774,0.12521394112110137,-0.2748901233255863
1783338518851284700,3.98528466796875,0.3690764734983444,0.12657470808029175,-0.2987511836454272
1783338518861257700,3.9952578125,0.3616640052847564,0.12494213844239711,-0.3013108050003648
1783338518871230700,4.005230712890625,0.3074496000163257,0.11498188544213771,-0.3172556853681803
1783338518881204000,4.015203857421875,0.23822175001129506,0.08607260182201862,-0.3200122905999422
1783338518891178000,4.025177978515625,0.15947569168508052,0.08714169235825538,-0.32873949467390773
1783338518901151000,4.03515087890625,0.07283142745494842,0.03301496537327766,-0.3185089002996683
1783338518911123700,4.045123779296875,-0.002807385570928454,-0.014396189621090889,-0.3178796624854207
1783338518921096700,4.0550966796875,-0.06727145524024963,-0.03819733644723892,-0.30486703617721794
1783338518931070000,4.065070068359375,-0.12299641120210289,-0.04038812448978424,-0.29699264954030513
1783338518941043000,4.07504296875,-0.13956746064424513,-0.026608605462312696,-0.28264585201889275
1783338518951016000,4.085015869140625,-0.17066227160990238,-0.016874562433362005,-0.27048282827734943
1783338518960988700,4.09498876953125,-0.15583061318099498,-0.00795943457186222,-0.260638310611248
1783338518970962000,4.1049619140625,-0.1291681586395949,-0.012507014873623847,-0.20447394031882285
1783338518980935000,4.114934814453125,-0.11927110706865787,-0.0030588030487298965,-0.1455269535705447
1783338518990908000,4.124907958984375,-0.07413315770328044,-0.0032902737170457837,-0.09754530521184206
1783338519000880600,4.134880615234375,-0.03730257956460118,-0.027098434805870056,-0.04417231920361519
1783338519010854700,4.144854736328125,0.021149755534529684,-0.03734627257585525,-0.004928104051947594
1783338519020827600,4.15482763671875,0.06139116503000259,-0.04928337860703468,0.037356501708924766
1783338519030801000,4.16480078125,0.10628186163604258,-0.04282382720410824,0.0769777334794402
1783338519040774000,4.17477392578125,0.1130085395425558,-0.055448330977559086,0.0815486946567893
1783338519050747000,4.184746826171875,0.11564239517748355,-0.052229368931055065,0.08550999950319528
1783338519060719600,4.1947197265625,0.11348434036076069,-0.0454570983171463,0.10070172341614961
1783338519070692900,4.20469287109375,0.10184636340662837,-0.052045244535803795,0.06347703139334916
1783338519080665900,4.214665771484375,0.062064534246921536,-0.05802782607674598,0.050829439005255696
1783338519090638800,4.224638916015625,0.017287234887480733,-0.07886193979084491,0.057523091425001616
1783338519100611800,4.23461181640625,-0.01967924459055066,-0.12948562709093092,0.019459610490500927
1783338519110584800,4.244584716796875,-0.06832585966400802,-0.1130348430275917,0.05783259576559067
1783338519120557800,4.254557861328125,-0.09833294845819472,-0.12890578137636183,0.03204670486301184
1783338519130531800,4.26453173828125,-0.13620412169098853,-0.14226853629648684,0.03715601070076227
1783338519140504800,4.2745048828125,-0.1456828747846186,-0.14553718270361424,0.032742578172683716
1783338519150477800,4.284477783203125,-0.1609714832007885,-0.13149755143523215,0.03086012542694807
1783338519160450800,4.294450927734375,-0.18198080735132097,-0.10400631791949272,0.02018149502426386
1783338519170423800,4.304423828125,-0.17767302715480326,-0.09093465490043162,0.008755553385615348
1783338519180396800,4.314396728515625,-0.1686298159342259,-0.07582768666148185,-0.0034308512315154075
1783338519190369800,4.324369873046875,-0.16232750091962517,-0.06705109048783779,-0.007881693160533904
1783338519200342800,4.3343427734375,-0.13697795560769735,-0.06632803691029548,-0.02396627425998449
1783338519210316000,4.34431591796875,-0.0896025295138359,-0.060678048324584954,-0.03776800511926413
1783338519220288800,4.354288818359375,-0.04200315847098827,-0.07000292603075504,-0.041538171307742594
1783338519230261800,4.36426171875,-0.013739187017083166,-0.06620820992290974,-0.04498889628350734
1783338519240235800,4.37423583984375,-0.0006979191362857818,-0.0657692339837551,-0.04312017980217933
1783338519250208800,4.384208740234375,0.03611417349763214,-0.054425417670607566,-0.04130582385659218
1783338519260182000,4.39418212890625,0.051405631458014245,-0.03068915277421474,-0.045987844192981714
1783338519270155000,4.404155029296875,0.05710369696915149,-0.02616319978237152,-0.05984831950217485
1783338519280127700,4.414127685546875,0.048270475237444044,-0.03308043182492256,-0.059600189960002894
1783338519290100700,4.424100830078125,0.04167115003764629,-0.04734627306461334,-0.0805529616177082
1783338519300074000,4.434073974609375,0.015709610307216643,-0.03953063087761402,-0.08129676572233438
1783338519310047000,4.444046875,0.013996230518072843,-0.05249532639086246,-0.07539777081161737
1783338519320020200,4.454020263671875,-0.018351795379072427,-0.059709495553374285,-0.08696136735528708
1783338519329993000,4.463992919921875,-0.02923661587834358,-0.06420037723183632,-0.08880465713441371
1783338519339966000,4.473966064453125,-0.049064329028874636,-0.07731471034884452,-0.09028349751532078
1783338519349939200,4.483939208984375,-0.047048751422762866,-0.09094809890389442,-0.08244681254029274
1783338519359913200,4.493913330078125,-0.04532558089196682,-0.07919920892119407,-0.09151216252744197
1783338519369886200,4.50388623046875,-0.04514839769415557,-0.07886720048785209,-0.09129355134069919
1783338519379859000,4.51385888671875,-0.053341714087128636,-0.06497077708244324,-0.08958470159620047
1783338519389832000,4.52383203125,-0.03902575009539723,-0.048505379971861835,-0.09624912792146205
1783338519399805200,4.53380517578125,-0.04665178799442947,-0.032004911547899244,-0.08408785774558782
1783338519409778200,4.543778076171875,-0.038075682828947896,-0.01651098981797695,-0.057952715013921255
1783338519419751200,4.553751220703125,-0.023570406810194254,-0.016749474748969078,-0.05612520732581615
1783338519429724000,4.563723876953125,-0.017839608073234557,-0.029613632497191428,-0.0710024584621191
1783338519439697200,4.573697265625,0.003366115432232618,-0.04770984567999839,-0.0737514649093151
1783338519449670100,4.583670166015625,0.022818565529584882,-0.018261048355698584,-0.08536620711833239
1783338519459644200,4.59364404296875,0.02751344534754753,-0.01768646333813667,-0.10180968465805053
1783338519469617200,4.6036171875,0.02847673742175102,-0.0073059390991926185,-0.13078005081564187
1783338519479590100,4.613590087890625,0.03242635183036327,-0.018825111979246138,-0.16913696173876522
1783338519489563000,4.62356298828125,0.03128711866736412,-0.0174456403195858,-0.1795966886937618
1783338519499536100,4.6335361328125,0.03475516010411084,-0.01660685140788555,-0.20214871224164963
1783338519509509000,4.643509033203125,0.05600779149122536,-0.0022930793732404706,-0.1973494952663779
1783338519519482000,4.653482177734375,0.06448335889168083,-0.017574819657206534,-0.17735241689831016
1783338519529455000,4.663455078125,0.04284063220843672,-0.013819266515970229,-0.17851269284933804
1783338519539428000,4.673427978515625,0.049984951005131006,-0.02717442265152931,-0.14444763390123844
1783338519549401000,4.683401123046875,0.03264620512612164,-0.035145547661185265,-0.1231213527560234
1783338519559374000,4.6933740234375,0.013266966395452618,-0.04790449146926403,-0.1006739586263895
1783338519569347000,4.70334716796875,-0.0166962832570076,-0.03725333359539509,-0.08291589135676622
1783338519579321000,4.713321044921875,-0.044078795701265334,-0.03979191216230392,-0.07230886488556862
1783338519589294000,4.723294189453125,-0.07069748416617512,-0.06963292367458343,-0.07652122188359499
1783338519599267000,4.73326708984375,-0.08621639420688151,-0.07447977918386459,-0.0953062941133976
1783338519609240000,4.743239990234375,-0.09452361930310725,-0.07844517568349837,-0.10072890368402003
1783338519619213000,4.753213134765625,-0.10522095440626143,-0.054902972054481504,-0.1010506829842925
1783338519629186000,4.76318603515625,-0.07931596716865896,-0.04866086279451847,-0.10629442885667086
1783338519639159300,4.7731591796875,-0.04697860879600048,-0.048310149660706514,-0.12126637253910302
1783338519649132000,4.783132080078125,-0.030238486397266385,-0.05200082087218761,-0.12842033594697713
1783338519659105000,4.79310498046875,0.0081955814152956,-0.03847323077917099,-0.12108487849235534
1783338519669078000,4.803078125,0.012880524361133575,-0.047561377120018004,-0.12359715357422828
1783338519679051300,4.81305126953125,0.03254617881774902,-0.02555705058276653,-0.1283121993973851
1783338519689025300,4.823025390625,0.055367740022018545,-0.00793196204304695,-0.13734978459477423
1783338519698998000,4.832998046875,0.04534209363535046,-0.0036819033831357955,-0.1472077462643385
1783338519708971000,4.842970947265625,0.04243512014746666,0.0057090252965688705,-0.15504326219558714
1783338519718944000,4.852944091796875,0.05715747298300266,-0.003837386205792427,-0.17020196062177417
1783338519728917200,4.862917236328125,0.06482859213277697,-0.026950550767779347,-0.1522372648641467
1783338519738890200,4.87289013671875,0.07822758741006254,-0.013951368463039397,-0.1680640718102455
1783338519748863000,4.882863037109375,0.07241159460768103,-0.011942951250076293,-0.1544502647385001
1783338519758836000,4.8928359375,0.06859349762424827,-0.014338906475901603,-0.13805325668901205
1783338519768809000,4.90280908203125,0.07450089503712952,-0.012440963900089263,-0.1352919752821326
1783338519778782200,4.9127822265625,0.03282850289046764,-0.025852818658947944,-0.13140519697666167
1783338519788755200,4.922755126953125,0.010431962165236473,-0.033165187498927114,-0.11411679304540157
1783338519798729200,4.932729248046875,-0.0023836072009056804,-0.03976210154592991,-0.11944237198233604
1783338519808702000,4.942701904296875,-0.013170958675071596,-0.03155775230228901,-0.1240212242051959
1783338519818675000,4.952675048828125,-0.00782367936298251,-0.03207037799954414,-0.1152545649036765
1783338519828648200,4.962648193359375,0.007045242336392402,-0.03601706979870796,-0.0881172593921423
1783338519838621200,4.97262109375,0.0037561376631259917,-0.030191724646091458,-0.10506050314754246
1783338519848594200,4.98259423828125,-0.0048110535435378545,-0.04544014718234539,-0.10268588297069071
1783338519858567000,4.99256689453125,0.004287614191323518,-0.037107787644863124,-0.10463438668996095
1783338519868540200,5.0025400390625,0.008642594530433416,-0.04566109645664692,-0.11081833602190017
1783338519878513200,5.01251318359375,0.024339491486549375,-0.0479494996547699,-0.12040332596898078
1783338519888486100,5.022486083984375,0.0005202244818210602,-0.059846273675560946,-0.10765782616436481
1783338519898459100,5.032459228515625,-0.004546922714635729,-0.04998012869954109,-0.11567717422991991
1783338519908433200,5.04243310546875,-0.004580313527584075,-0.05256137736439705,-0.11825403898060322
1783338519918406000,5.052406005859375,-0.005785597664117813,-0.048242345121502876,-0.1005585155531764
1783338519928379100,5.062379150390625,0.007962503311783074,-0.03205284234285354,-0.09833616332858801
1783338519938352000,5.07235205078125,0.021533201894164085,-0.0367693494707346,-0.08071575096398592
1783338519948325000,5.0823251953125,0.029598434928059577,-0.04295943628251552,-0.07141366961151362
1783338519958297900,5.0922978515625,0.04203063099980354,-0.06129881057143211,-0.05602759217023849
1783338519968271000,5.10227099609375,0.028186814564466475,-0.04366261611580848,-0.038085692766308785
1783338519978244000,5.112244140625,0.019060162844136357,-0.03838613701760769,-0.017159516854584216
1783338519988217000,5.122217041015625,0.007536971376091241,-0.05288754057884216,-0.008073416340351105
1783338519998190000,5.132190185546875,0.001330444886162877,-0.08609013747870922,0.004638765716552734
1783338520008164000,5.1421640625,-0.013158756780624389,-0.10260521894991398,-0.012450023989379406
1783338520018137000,5.15213720703125,-0.026345497546717524,-0.10587152726948261,-0.032364392510056496
1783338520028110000,5.162110107421875,-0.020800649835914373,-0.09437047456800937,-0.06501783109456301
1783338520038083000,5.1720830078125,-0.008086860343813895,-0.07398059749007224,-0.09055968410819769
1783338520048056000,5.18205615234375,-0.0016577040791511534,-0.05792378118038177,-0.11173428182303904
1783338520058029000,5.192029052734375,0.016982698982954025,-0.06161620595753192,-0.11208850208818912
1783338520068002000,5.202001953125,0.022198972326517102,-0.047074470385909076,-0.11196867510080337
1783338520077975000,5.21197509765625,0.016048048481345174,-0.03448445340394973,-0.1206619769051671
1783338520087948000,5.221947998046875,0.017134747739508748,-0.013117255726456641,-0.11977759528607129
1783338520097921000,5.231921142578125,0.020457681617140767,0.007000818672776222,-0.11078735636174677
1783338520107894300,5.241894287109375,0.02528597855642438,0.0031558336824178694,-0.10967004276961087
1783338520117867000,5.251866943359375,0.031445012642815705,-0.025236148065328597,-0.09986234998255968
1783338520127841000,5.261841064453125,0.03391227953918278,-0.033794717574119566,-0.08856032698452472
1783338520137814000,5.27181396484375,0.042847938732057805,-0.05224748910963535,-0.07395429400503635
1783338520147787000,5.281787109375,0.0466249730527401,-0.049019759234786034,-0.06695698246359824
1783338520157760300,5.29176025390625,0.060925885605812066,-0.04491115487217903,-0.06743015293329954
1783338520167733200,5.301733154296875,0.05109430048651993,-0.0511778140515089,-0.06198942318409681
1783338520177706000,5.3117060546875,0.04939443776607513,-0.04787175824344158,-0.05646364549994468
1783338520187679000,5.321678955078125,0.04677461065649986,-0.05622632961273193,-0.05766629928797483
1783338520197652200,5.33165234375,0.0379021528929472,-0.030820670199394225,-0.05225274980664253
1783338520207625200,5.341625244140625,0.026608459331840275,-0.03758417298495769,-0.05314239212274551
1783338520217598200,5.35159814453125,0.018147504978626966,-0.039838673913478846,-0.060713119637966155
1783338520227571000,5.361571044921875,-0.00046352585852146145,-0.06107143155634403,-0.07253302903026342
1783338520237544000,5.3715439453125,-0.009592515666410326,-0.07573416315913199,-0.07382511466741562
1783338520247517200,5.38151708984375,-0.02405658289194107,-0.07090016713142394,-0.07222294016778469
1783338520257491200,5.3914912109375,-0.025552958929538724,-0.07270400168299675,-0.06615560295283794
1783338520267464200,5.401464111328125,-0.02065042771026492,-0.07445873639583588,-0.05943301669955253
1783338520277437000,5.41143701171875,-0.025607246400043367,-0.057767713835835455,-0.0745075439736247
1783338520287410000,5.421409912109375,-0.03297974792942405,-0.04804126959145069,-0.0760588650688529
1783338520297383200,5.431383056640625,-0.03167056502699852,-0.04746317744255066,-0.0716775812447071
1783338520307356200,5.441356201171875,-0.042637291656062004,-0.03876432268023491,-0.0854655758395791
1783338520317328600,5.45132861328125,-0.012562471387907862,-0.035437808606028555,-0.07873305271416903
1783338520327301600,5.461301513671875,0.011038257495313883,-0.0345253699362278,-0.08433627954870462
1783338520337275000,5.47127490234375,0.011735445979237556,-0.041885669571161264,-0.08938596415370702
1783338520347247900,5.481247802734375,0.015224311008304356,-0.0354793096601963,-0.10432459008842707
1783338520357220600,5.491220703125,0.022444909911602733,-0.03116904524564743,-0.10829290919750928
1783338520367194600,5.501194580078125,0.014511924955248832,-0.030219197174906728,-0.11962620411664247
1783338520377167600,5.511167724609375,0.007713789247721433,-0.0264776725590229,-0.11273615234196185
1783338520387140900,5.521140869140625,-0.01404211548641324,-0.03705576519668102,-0.11410597939044237
1783338520397113900,5.53111376953125,-0.011034604233503342,-0.052905076235532755,-0.10527969885617494
1783338520407086800,5.5410869140625,-0.02242942008152604,-0.05067161809504032,-0.09854103825092315
1783338520417059600,5.5510595703125,0.0022135843962430954,-0.05847790793180466,-0.0909817089125514
1783338520427032800,5.56103271484375,0.016272358756512402,-0.048321255576610565,-0.0748497815400362
1783338520437005800,5.571005859375,0.018941285704821346,-0.05148468804359436,-0.05871873095035553
1783338520446978800,5.580978759765625,0.03060088996887207,-0.04291209000945091,-0.0410609091848135
1783338520456951800,5.590951904296875,0.01990311647430062,-0.03763911804258823,-0.0357169178083539
1783338520466924500,5.600924560546875,0.011415201048925518,-0.037467853128910066,-0.040265374892950054
1783338520476898600,5.610898681640625,0.003269450124725699,-0.06239654268026352,-0.04191255757808685
1783338520486871800,5.620871826171875,0.014785042808204888,-0.05749298854768276,-0.05565174459517002
1783338520496844800,5.6308447265625,0.02559402159228921,-0.05856675525903701,-0.06420768375545739
1783338520506817800,5.64081787109375,0.019828005411475894,-0.060520227414369576,-0.08062427328824996
1783338520516790800,5.650790771484375,0.01801306494399905,-0.04417115015983581,-0.06766776108145714
1783338520526763800,5.660763671875,0.011283610558509826,-0.0312748437076807,-0.08873305320292711
1783338520536736800,5.67073681640625,0.0016290625065565108,-0.03151099055111408,-0.1091200076714158
1783338520546709800,5.680709716796875,0.01156885724067688,-0.030149639070034026,-0.10529197381585836
1783338520556682800,5.690682861328125,0.017599369576573373,-0.021917817297577857,-0.10847235741764306
1783338520566655700,5.70065576171875,0.03501403023600578,-0.026937106764316557,-0.10010258847922086
1783338520576629800,5.710629638671875,0.036095468797162175,-0.0215326173722744,-0.0777358583703637
1783338520586602800,5.720602783203125,0.010070873767882585,-0.02111293065547943,-0.08877221616953611
1783338520596575700,5.73057568359375,0.004532382732629776,-0.046128713968396184,-0.0818646287381649
1783338520606548700,5.740548828125,-0.00324643457531929,-0.0659352382004261,-0.05124035789370537
1783338520616521700,5.750521728515625,-0.0011374795973300934,-0.07370178054869174,-0.06324409942030906
1783338520626494700,5.76049462890625,-0.008352744738385081,-0.06339256798028946,-0.054636722333729265
1783338520636467700,5.7704677734375,-0.005067804783582687,-0.06739186674952506,-0.05959259117543697
1783338520646440700,5.780440673828125,-0.017072130832076073,-0.0713338823735714,-0.059165305674076074
1783338520656413700,5.79041357421875,-0.028765491235256194,-0.08296060728132724,-0.04657002799510956
1783338520666387700,5.8003876953125,-0.02933423103392124,-0.08529109605550765,-0.06209522164613008
1783338520676361000,5.81036083984375,-0.010351882666349411,-0.08240355792045592,-0.07514671865999699
1783338520686333700,5.820333740234375,-0.0031019846033304927,-0.06833119342625141,-0.09301379926204681
1783338520696306700,5.830306640625,0.003862082255631685,-0.04582183997631073,-0.08889496576637029
1783338520706279700,5.84027978515625,0.027505919628217815,-0.032570728737115855,-0.10041267734169959
1783338520716253000,5.8502529296875,0.025624928187206387,-0.019484452670812606,-0.09710165309756993
1783338520726226000,5.860225830078125,0.04525368469953537,-0.010787351474165915,-0.10494038389921188
1783338520736198700,5.87019873046875,0.04732873740792274,-0.017222352957725524,-0.1111871693342924
1783338520746171600,5.880171630859375,0.04368599699139595,-0.018510639202594756,-0.11934271100014447
1783338520756144600,5.89014453125,0.03332257001772523,-0.026903204494714734,-0.10720160682946443
1783338520766118000,5.900117919921875,0.017832082353904842,-0.03877075242102146,-0.1097971762806177
1783338520776092000,5.910091796875,0.011850085334852337,-0.045887890949845314,-0.09540683187842368
1783338520786065000,5.92006494140625,0.007846183455735444,-0.06080605861842632,-0.08649141175597906
1783338520796037600,5.93003759765625,-0.002110708543658256,-0.058197337424755094,-0.08789572559595107
1783338520806010600,5.9400107421875,0.011444427143409848,-0.052198389270901674,-0.08806991311907768
1783338520815983900,5.94998388671875,0.010775807166844606,-0.04923720137774944,-0.09082388800233603
1783338520825956900,5.959956787109375,0.015464549504965543,-0.04446458014845848,-0.09248802182227372
1783338520835929600,5.9699296875,0.017168430813401938,-0.04438391612768173,-0.08439151686728
1783338520845902600,5.979902587890625,0.009581336685270071,-0.035037411111593246,-0.07324497669190168
1783338520855875800,5.989875732421875,0.0011643676042556762,-0.04649871632456779,-0.0715121615499258
1783338520865848800,5.999848876953125,0.008614756675437093,-0.06343757616579532,-0.07371814716160296
1783338520875822800,6.00982275390625,0.013112725681811571,-0.05872048451602459,-0.0664820584282279
1783338520885795800,6.0197958984375,-0.008234305990487337,-0.060652913883328434,-0.06652677435278892
1783338520895768600,6.0297685546875,-0.009700725281238555,-0.07411679109036921,-0.05543868636637926
1783338520905741600,6.039741455078125,-0.008194412371516227,-0.06185995158553123,-0.03248743436783552
1783338520915714800,6.04971484375,-0.008304448617249726,-0.052016602963209146,-0.043534021300077434
1783338520925687800,6.059687744140625,-0.015692659172415732,-0.06417232018113136,-0.027372867833077907
1783338520935660800,6.069660888671875,-0.009028086716681719,-0.06270575475990772,-0.028975919115543362
1783338520945633500,6.079633544921875,0.000015197569131851195,-0.08233224624991417,-0.03494301082640886
1783338520955606800,6.089606689453125,-0.0029104806192219255,-0.07528583486974239,-0.03790390645861626
1783338520965579800,6.099579833984375,-0.0188235045440495,-0.06337678588926791,-0.03033756285756826
1783338520975552800,6.109552734375,-0.005460165102034807,-0.04202887743413448,-0.03104746469259262
1783338520985526800,6.11952685546875,-0.007575549820810556,-0.040241994017362594,-0.02395546060502529
1783338520995499800,6.129499755859375,-0.016675824990868567,-0.06319792219102383,-0.026738077060878274
1783338521005472800,6.13947265625,-0.010668693530559539,-0.04787234276533127,-0.03529167813360691
1783338521015445800,6.14944580078125,-0.0007364245157688856,-0.05503332043588161,-0.02731032399088144
1783338521025418800,6.159418701171875,0.022655556987598538,-0.05262099859714508,-0.029394436788558957
1783338521035391700,6.169391845703125,0.028558132094889877,-0.05041618202924728,-0.03181728002130985
1783338521045364700,6.17936474609375,0.01942614661231637,-0.06781038442254066,-0.043351942731440066
1783338521055337700,6.189337646484375,0.007856120327860117,-0.06716214964687824,-0.05138093540817499
1783338521065310700,6.199310791015625,-0.007616320222616196,-0.07452770997881888,-0.0428296724230051
1783338521075283700,6.20928369140625,-0.025479309171438216,-0.06643091276288032,-0.059603989352285856
1783338521085256700,6.219256591796875,-0.015632453417778015,-0.05659224031567573,-0.05852963811904192
1783338521095230700,6.229230712890625,-0.004082300877571106,-0.060765726608037945,-0.06056903499215841
1783338521105204000,6.239203857421875,0.009224339941143989,-0.05110474881529808,-0.06384528018385172
1783338521115176700,6.2491767578125,0.010458338715508579,-0.06752747582793235,-0.05416004473268986
1783338521125149700,6.259149658203125,0.024533625819161534,-0.07258066756427288,-0.03555734333246946
1783338521135122700,6.269122802734375,0.013744447714090346,-0.06061608900427818,-0.025338147135078905
1783338521145096000,6.279095947265625,0.01633154159784317,-0.04646656762063503,-0.03699117552787065
1783338521155068700,6.289068603515625,0.017456161713600156,-0.05842822357118129,-0.020260405479371548
1783338521165041700,6.299041748046875,0.01655292926356196,-0.05438859279155731,-0.016039280652999876
1783338521175014700,6.3090146484375,0.006641191580146551,-0.052578328499197954,-0.01843728170543909
1783338521184988000,6.31898779296875,0.0007196195114403962,-0.05897825866937637,-0.014364917699992655
1783338521194961000,6.3289609375,-0.010954378604143857,-0.07923428023457527,-0.027032091571390627
1783338521204935000,6.338934814453125,0.006218728384375572,-0.06873509805202484,-0.021915186949074267
1783338521214907600,6.34890771484375,0.008413461949676274,-0.05658814866244793,-0.030183249078691004
1783338521224880600,6.358880615234375,0.014807546900957822,-0.06295125395357608,-0.03129413293004036
1783338521234853600,6.368853515625,0.0288175136834383,-0.046098903352022165,-0.031014146944880482
1783338521244827000,6.378826904296875,0.025956863555312154,-0.032329905718564984,-0.022842530927062035
1783338521254800000,6.3887998046875,0.02481587682664394,-0.03641863633692265,-0.019945348180830477
1783338521264772600,6.398772705078125,0.02820851493962109,-0.048480245530605315,-0.009533259759843348
1783338521274745600,6.40874560546875,0.003436842580884695,-0.07098083115220069,-0.010056699112057685
1783338521284718800,6.41871875,-0.013511954132467507,-0.07801262948513031,-0.0022299510091543196
1783338521294691800,6.42869189453125,-0.020719474358484147,-0.09773965874016284,0.0013484919995069504
1783338521304665900,6.438665771484375,-0.04413564045503735,-0.1208510697364807,0.020523148068785666
1783338521314638000,6.44863818359375,-0.04955978439562023,-0.11583528740108012,0.032579496565461157
1783338521324611000,6.458611083984375,-0.03401858945786953,-0.11014905845820903,0.03631400691866875
1783338521334584300,6.468584228515625,-0.03285495250597596,-0.09897592253684998,0.044217327389121056
1783338521344557300,6.478557373046875,-0.012531710923463106,-0.09030687839090823,0.05669950008243322
1783338521354530300,6.4885302734375,0.0099514851719141,-0.0790624307990074,0.06448065547794103
1783338521364503000,6.4985029296875,0.019976035580039023,-0.08312193532288074,0.05899287171661854
1783338521374476300,6.508476318359375,0.013479074776172637,-0.08327449553608894,0.0511561867415905
1783338521384449300,6.51844921875,0.01955050364434719,-0.08537702077329158,0.049825230398774144
1783338521394422300,6.52842236328125,0.009424904014542698,-0.09059738577008247,0.0470712555155158
1783338521404395300,6.538395263671875,-0.008525251761078835,-0.08859364473223685,0.0400084775224328
1783338521414369300,6.548369384765625,-0.0005308920063078404,-0.08044482506811618,0.021863164500892162
1783338521424342300,6.55834228515625,-0.0041704906176775695,-0.07004501160681248,0.019872282944619655
1783338521434315300,6.568315185546875,-0.0033346973806619644,-0.06772972040176391,0.01374386319220066
1783338521444288300,6.578288330078125,0.010463526347279548,-0.07708616228997707,-0.0005877367600798606
1783338521454261200,6.58826123046875,0.000180032742023468,-0.06532441282570361,-0.008681026844680308
1783338521464234200,6.598234130859375,0.004844955813139677,-0.07107260108888148,-0.023803192652761936
1783338521474207200,6.608207275390625,0.020299860706925393,-0.06952712521255015,-0.039913784976303573
1783338521484180200,6.61818017578125,0.029509660666063427,-0.062497664967179296,-0.021999358101189134
1783338521494153200,6.6281533203125,0.02980477115511894,-0.04596095618605613,-0.013698562745749949
1783338521504126200,6.638126220703125,0.03518003445267677,-0.05083703778982162,-0.018723697431385515
1783338521514099500,6.648099365234375,0.01847030719220638,-0.06887830591499805,-0.018844985723495484
1783338521524073500,6.658073486328125,0.018942016357183455,-0.0849754542350769,-0.01542524040788412
1783338521534046200,6.668046142578125,0.018426906441897154,-0.09238543823063373,-0.016045418132841587
1783338521544019200,6.678019287109375,0.006159545543044805,-0.08673486512303352,-0.011474164694547652
1783338521553992200,6.6879921875,-0.010599646882340311,-0.09044657912254334,-0.006984744320809841
1783338521563965400,6.69796533203125,-0.01591419296860695,-0.0808358702123165,-0.022386603853106497
1783338521573938200,6.707938232421875,-0.015630626786872742,-0.07866320234835147,-0.02257774251103401
1783338521583911200,6.7179111328125,-0.02707856106162071,-0.0657084437072277,-0.03678513156175613
1783338521593884200,6.72788427734375,-0.02323196863606572,-0.07582417953014374,-0.05435293695628643
1783338521603857200,6.737857177734375,-0.024764000508934257,-0.06523907262980938,-0.06422901880443095
1783338521613830400,6.747830322265625,-0.015256751973181963,-0.05095218860208988,-0.07411854465603827
1783338521623803100,6.75780322265625,-0.0020627777487039565,-0.051096565508842465,-0.05806728130429983
1783338521633777200,6.767777099609375,-0.005194061511754989,-0.06042202773690224,-0.056549862478673454
1783338521643750100,6.777750244140625,0.009295651611685753,-0.06693593967556953,-0.059791913139820095
1783338521653723100,6.78772314453125,0.013857260438799857,-0.060624856832623475,-0.05370236409306526
1783338521663696400,6.7976962890625,0.016228081223368645,-0.061356093716621395,-0.052853053787350654
1783338521673669400,6.80766943359375,0.022189035454392433,-0.06314005452394485,-0.04844488195627927
1783338521683642000,6.81764208984375,0.003567337092757225,-0.059086979740858074,-0.04554799147099256
1783338521693615000,6.827614990234375,0.02247296696230769,-0.04816752631962299,-0.042615152889490124
1783338521703588400,6.83758837890625,0.01938742203712463,-0.056716158956289286,-0.061487611141800874
1783338521713561300,6.847561279296875,0.016683496840670702,-0.048206104764342304,-0.07230097384005785
1783338521723534300,6.857534423828125,0.03282850289046764,-0.05463993720412254,-0.057277884492278094
1783338521733507000,6.867507080078125,0.014917583146691322,-0.05761924527585506,-0.07833499330729246
1783338521743481000,6.877481201171875,-0.0033481413841247557,-0.07233692193627357,-0.07403846515715122
1783338521753454300,6.887454345703125,-0.0002602583713829517,-0.0689502021074295,-0.07389175016283989
1783338521763427300,6.89742724609375,-0.01349887545518577,-0.07122106964886188,-0.08844839104264975
1783338521773400300,6.907400390625,0.001917231798171997,-0.07017126833498477,-0.09976590387076138
1783338521783373300,6.917373291015625,-0.012945552421361207,-0.06656535279750823,-0.10385580353289842
1783338521793346000,6.927345947265625,-0.009102028735727071,-0.05903963346779346,-0.09910860900580883
1783338521803319300,6.9373193359375,0.002033697784692049,-0.04176876519322395,-0.12306231604516506
1783338521813292300,6.947292236328125,0.011184241837263107,-0.016140987461805343,-0.11774608945846557
1783338521823265300,6.957265380859375,0.0074181673020124435,-0.009217910200357437,-0.09732903211265802
1783338521833238300,6.96723828125,0.006843655349686741,-0.01575461849272251,-0.11657236950397491
1783338521843211300,6.977211181640625,-0.0009521861582994461,-0.033683658415079115,-0.1102919740602374
1783338521853185300,6.987185302734375,0.003051934916526079,-0.04519523251056671,-0.10487170257717371
1783338521863158300,6.997158203125,0.032256913547590374,-0.038165187743306156,-0.11271627859771251
1783338521873131300,7.00713134765625,0.02719027780778706,-0.041456045982241625,-0.11249152993112801
1783338521883104300,7.017104248046875,0.03488901561684906,-0.02744154915511608,-0.09944003291726111
1783338521893077200,7.0270771484375,0.06023264264464378,-0.01880465371310711,-0.10232377166002989
1783338521903050200,7.03705029296875,0.07464154561683535,-0.008807575833797454,-0.09645838675796985
1783338521913023200,7.047023193359375,0.07177585398741065,-0.020983751317858696,-0.09217267226278782
1783338521922996200,7.056996337890625,0.06470313912220299,-0.021492285361886024,-0.09081278208643198
1783338521932969200,7.06696923828125,0.06038008829131722,-0.01681903285384178,-0.08519055829048157
1783338521942942200,7.076942138671875,0.03497121400758624,-0.028536358654499053,-0.07709200750887393
1783338521952916200,7.086916259765625,0.02543006320223212,-0.0445768083512783,-0.07820844431817531
1783338521962889200,7.09688916015625,-0.006806172883510589,-0.06430266856253147,-0.07137158403545618
1783338521972862200,7.1068623046875,-0.03576272971145809,-0.08955226063132285,-0.05704612156301737
1783338521982835200,7.116835205078125,-0.03846848153881728,-0.09315642260313034,-0.05772592052072286
1783338521992808400,7.126808349609375,-0.038854850507900114,-0.07935995244085789,-0.0512257448464632
1783338522002781200,7.13678125,-0.04971870128437876,-0.06837853969931602,-0.04845072717517614
1783338522012754200,7.146754150390625,-0.04952339790798723,-0.04599018228054046,-0.034652795708179474
1783338522022727200,7.15672705078125,-0.0514174680262804,-0.048881812068819995,-0.03205430364757776
1783338522032700400,7.166700439453125,-0.03665025313571095,-0.05247895977795124,-0.016533786171674728
1783338522042673400,7.17667333984375,-0.026513328394293784,-0.0814332515835762,0.0009136077135801315
1783338522052646100,7.186646240234375,-0.033509617022424935,-0.08208499349057674,0.007256839260458945
1783338522062619100,7.196619140625,-0.0042728550136089324,-0.09305880744755267,0.01513853242099285
1783338522072593200,7.20659326171875,0.014462678986042737,-0.08242986140549183,0.009103051649034024
1783338522082566100,7.216566162109375,0.023936171382665634,-0.09147124599516392,-0.002530102999508381
1783338522092539400,7.226539306640625,0.006629062750935554,-0.08126841641068458,0.003217500741779804
1783338522102512400,7.236512451171875,0.00799224086292088,-0.0650941112011671,-0.013349310916662216
1783338522112485000,7.246485107421875,0.029595512318611142,-0.046641924187541005,-0.04200637334138155
1783338522122458000,7.2564580078125,0.030370588344335554,-0.03506605268418789,-0.050531040580570695
1783338522132431400,7.266431396484375,0.035204438241571184,-0.02846680054962635,-0.07425619956105947
1783338522142404400,7.276404296875,0.012726210582256316,-0.030737083569169044,-0.09864888253957033
1783338522152377300,7.28637744140625,0.01537818639576435,-0.01868131959438324,-0.09884761998206376
1783338522162350000,7.29635009765625,0.023037176716327667,-0.04481996945738792,-0.09358779975771904
1783338522172324000,7.306323974609375,0.010452420431375503,-0.05584229873120784,-0.09852145676761866
1783338522182297300,7.31629736328125,0.024400720154494047,-0.050097617599368094,-0.10440203923881053
1783338522192270300,7.326270263671875,0.021446254263073204,-0.053332946258783334,-0.10409954916089773
1783338522202243300,7.336243408203125,0.020146789037063715,-0.050552375629544254,-0.11983955460637807
1783338522212216000,7.346216064453125,0.016794482934474945,-0.06260112534165382,-0.11453414167463778
1783338522222189300,7.356189208984375,-0.007706482724100351,-0.04576572587490082,-0.11863777760118245
1783338522232162300,7.366162353515625,0.004237199178338051,-0.04538344855904579,-0.12194558697491883
1783338522242135300,7.37613525390625,0.0008107318609952926,-0.05535246938765049,-0.1224760405898094
1783338522252108300,7.3861083984375,-0.00893500160574913,-0.05291852023899555,-0.11959551671743392
1783338522262081000,7.3960810546875,0.0028162264645099637,-0.05270341618359089,-0.10813333472162484
1783338522272054300,7.40605419921875,-0.005412234307080507,-0.05411036037206649,-0.08719692967683076
1783338522282028300,7.4160283203125,0.0026465689860284327,-0.0361024099946022,-0.07919687083363533
1783338522292001300,7.426001220703125,0.003053542351722717,-0.042158641293644904,-0.08205196800380944
1783338522301974300,7.435974365234375,-0.002723287484049797,-0.05364975712299347,-0.04606792369186878
1783338522311947300,7.445947265625,0.009828735575079918,-0.06899170316159725,-0.039434769287705417
1783338522321920800,7.455920654296875,0.007967033356428146,-0.08214227663576602,-0.028528467608988282
1783338522331894000,7.46589404296875,0.008590791277959942,-0.09593348610103129,-0.011396423283219336
1783338522341866800,7.47586669921875,-0.006559943037480116,-0.07784428718090057,0.0033469723403453827
1783338522351839700,7.48583984375,-0.012901567149162291,-0.07321838094592094,0.019123218142986297
1783338522361812700,7.495812744140625,-0.013996961170434951,-0.07470657367706299,0.023965981999039647
1783338522371786000,7.505785888671875,-0.03771569041013718,-0.06732464673221111,0.029141338810324668
1783338522381759000,7.515759033203125,-0.022505407927185295,-0.08670388546288013,0.03670154493153095
1783338522391733000,7.52573291015625,-0.03898585647642612,-0.0830406867802143,0.039076749630272384
1783338522401705700,7.535705810546875,-0.024036124625802038,-0.08878069173693656,0.04188771539777517
1783338522411678700,7.5456787109375,-0.018009703943133355,-0.10260872608125209,0.05251520013511181
1783338522421652000,7.55565185546875,-0.0006903203517198563,-0.09390987131893634,0.05217997683137655
1783338522431625000,7.565625,-0.0014314210426062345,-0.09834989959299564,0.03906125980019569
1783338522441598000,7.575597900390625,0.0008025485545396804,-0.093968323507905,0.03612929800152778
1783338522451570700,7.58557080078125,0.02553133161962032,-0.07945289142131805,0.032738778780400754
1783338522461543700,7.595543701171875,0.03910392989814281,-0.06450958931148051,0.01650894399136305
1783338522471517000,7.605516845703125,0.0588157615840435,-0.062170917230844495,0.011806757649779318
1783338522481490000,7.615489990234375,0.04597834571227431,-0.045313890454173084,0.013764613719284533
1783338522491463000,7.625462890625,0.04595511096715927,-0.03772095110714435,-0.0015828852772712706
1783338522501437000,7.63543701171875,0.053040100792050356,-0.03675298285782337,-0.04576923300623893
1783338522511409700,7.64540966796875,0.04258183514177799,-0.0163911628305912,-0.06805325326770544
1783338522521383000,7.6553828125,0.01563186889588833,-0.047312955316901203,-0.10013415266126394
1783338522531356000,7.66535595703125,-0.006430325308442115,-0.03755377784669399,-0.11353490150421858
1783338522541329000,7.675328857421875,-0.019798925447463988,-0.04611468544304371,-0.12069120299965143
1783338522551301600,7.685301513671875,-0.029871552781015633,-0.05159808529019355,-0.12489303860366344
1783338522561275000,7.69527490234375,-0.02544416479282081,-0.030926468661427495,-0.11976385902166366
1783338522571247900,7.705247802734375,-0.010081249031424521,-0.0500537784576416,-0.10412146873176097
1783338522581220900,7.715220947265625,-0.0004769698619842529,-0.05857260047793388,-0.08647358383834361
1783338522591193900,7.72519384765625,0.034141339054703713,-0.07997603851258754,-0.07944090872257947
1783338522601166800,7.735166748046875,0.03528649050183594,-0.05416705899536609,-0.06735445734858513
1783338522611140600,7.745140625,0.045224020213633774,-0.056196518996357914,-0.037951252731680866
1783338522621113900,7.75511376953125,0.04371989926099777,-0.06202946293354034,-0.01980155579596758
1783338522631086800,7.7650869140625,0.030778146231919525,-0.061765259039402005,-0.028510639691352844
1783338522641059800,7.775059814453125,0.029669308207184074,-0.0607458528637886,-0.020622516790032387
1783338522651032800,7.78503271484375,0.029109847693517803,-0.045080081698298455,-0.011355506750941276
1783338522661005800,7.795005859375,0.01362578977048397,-0.040645314121246334,-0.024947394251823424
1783338522670978800,7.804978759765625,-0.0017628449540585279,-0.03185702750980854,-0.04158756340742111
1783338522680951800,7.814951904296875,-0.0069826984941959375,-0.04198503829240799,-0.015569325053691864
1783338522690924800,7.8249248046875,-0.006045052317902445,-0.06422784976065159,-0.038683950920403
1783338522700898000,7.83489794921875,-0.008474982878565789,-0.06477788485884665,-0.037267654381692404
1783338522710870800,7.844870849609375,-0.010921206986904144,-0.06234744284152984,-0.024151275438070295
1783338522720844800,7.8548447265625,-0.005372340688109397,-0.07082943998277187,-0.038621114817261694
1783338522730817800,7.86481787109375,-0.014576806885004043,-0.06626724663376808,-0.03253361159712076
1783338522740790800,7.874790771484375,0.003340104208141565,-0.07505787133276462,-0.0330786782592535
1783338522750763800,7.884763671875,0.016488193464279172,-0.06488134523332119,-0.04514759397655725
1783338522760737000,7.894737060546875,0.018341127854585648,-0.07081891858875751,-0.0624058950304985
1783338522770709800,7.904709716796875,0.011964578559994696,-0.0674035571873188,-0.048749710121750826
1783338522780682800,7.914682861328125,0.01201543196439743,-0.04845511108934879,-0.05750584802925587
1783338522790655700,7.92465576171875,0.01094210364446044,-0.043506548771262164,-0.06098258422911167
1783338522800629000,7.93462890625,0.0028005174387246367,-0.04265490037798881,-0.059683776590228076
1783338522810602000,7.94460205078125,0.013616875811666249,-0.04398761028647422,-0.061952890565991396
1783338522820574700,7.95457470703125,0.014365648352354763,-0.033626959791779515,-0.06698328594863415
1783338522830548700,7.964548828125,0.017310104306414723,-0.04321896400153637,-0.08181552889943122
1783338522840521700,7.974521728515625,0.015277721695974468,-0.03361293126642704,-0.0826639624223113
1783338522850495000,7.984494873046875,0.029278847584873435,-0.050316813308000564,-0.07893792763650417
1783338522860468000,7.994468017578125,0.034765681498125194,-0.04801555062830448,-0.07644815664738416
1783338522870440700,8.004440673828125,0.05322597875297069,-0.0293839153945446,-0.07721095771342515
1783338522880413700,8.01441357421875,0.04439093039035797,-0.0367430459856987,-0.06838613848388195
1783338522890387000,8.024386962890626,0.06354637030251324,-0.03887304375171661,-0.06511427720636129
1783338522900360000,8.03435986328125,0.043565000960230825,-0.08200608303546905,-0.08745061217695474
1783338522910333000,8.0443330078125,0.01870280077382922,-0.05337561635673046,-0.08634469676166773
1783338522920305700,8.0543056640625,0.013360855223983526,-0.048286184263229365,-0.07836012774854897
1783338522930278700,8.064278564453126,-0.008414338732510804,-0.04932254157364368,-0.07951894239485263
1783338522940252700,8.074252685546876,-0.016942293907329438,-0.0177244572609663,-0.062330491706728934
1783338522950226000,8.084225830078125,0.0009394728071987628,-0.0001993219643831253,-0.0674818831205368
1783338522960199000,8.094198974609375,-0.007004910326004028,-0.016270166799426077,-0.05543985541015863
1783338522970172000,8.104171875,-0.001127688855677843,0.012330489262938499,-0.04171791178882122
1783338522980144600,8.11414453125,-0.008741670990735292,-0.00621054507791996,-0.043591596706211565
1783338522990118000,8.124117919921876,0.014621668940037488,-0.06037526598572731,-0.07416822901666165
1783338523000091000,8.1340908203125,0.004678513205051422,-0.07845218994617462,-0.07790946137160062
1783338523010064000,8.14406396484375,-0.021449030742049215,-0.07787292875349522,-0.04770896889716387
1783338523020036900,8.154036865234374,-0.02610825472474098,-0.08388006021380424,-0.03458177629858255
1783338523030009900,8.164009765625,-0.04076806371808052,-0.08401333120465278,-0.026249709022045133
1783338523039982800,8.17398291015625,-0.043692938188835975,-0.10267828418612479,-0.024949440078437326
1783338523049956900,8.183956787109375,-0.05393675737082958,-0.12564531827569006,-0.027847791868448254
1783338523059929900,8.193929931640625,-0.05257423684597015,-0.11347849514186381,-0.021277473567426205
1783338523069902800,8.20390283203125,-0.06218611479997634,-0.085350132766366,-0.0036360184147953985
1783338523079875800,8.213875732421876,-0.046492724975198504,-0.08754033628702163,-0.005106383228302001
1783338523089848800,8.223848876953125,-0.0430463839136064,-0.07366495566964149,0.015029226827621459
1783338523099821800,8.23382177734375,-0.03913300986215472,-0.09687690443098544,0.03455050437748432
1783338523109794800,8.243794921875,-0.039262773721665145,-0.1281061554312706,0.02181698727160692
1783338523119767800,8.253767822265624,-0.018663199415802953,-0.14526771811246872,0.04784574701935053
1783338523129740800,8.26374072265625,-0.01515358385965228,-0.14199264196455477,0.0406923681333661
1783338523139713800,8.2737138671875,-0.02128178441636264,-0.10149170475006103,0.058140638801455494
1783338523149686800,8.283686767578125,-0.0038531682968139646,-0.08555003925263881,0.05229805025309324
1783338523159660800,8.293660888671875,0.0016774316929280757,-0.12241174318194388,0.03339753495007753
1783338523169633800,8.3036337890625,0.016477672070264817,-0.0838689542979002,0.00964344213604927
1783338523179607000,8.31360693359375,0.05201704135462641,-0.042585926795005793,-0.02017038910835981
1783338523189579800,8.323579833984375,0.09303177331015468,-0.02479775664806366,-0.059060676255822175
1783338523199552800,8.333552734375,0.1021118824750185,0.018695932641625404,-0.10399638104736804
1783338523209525800,8.34352587890625,0.10011457117795944,0.06040332303643226,-0.1357116619989276
1783338523219498800,8.353498779296874,0.10167392944917082,0.04101005578041077,-0.17541589587777853
1783338523229472000,8.363471923828126,0.08552008250579238,0.006131050100922584,-0.215786776971817
1783338523239444700,8.37344482421875,0.08061828193888068,-0.003217208480834961,-0.21274054114371538
1783338523249417700,8.383417724609375,0.061421998559683555,-0.012587678894400597,-0.2172334686487913
1783338523259390700,8.393390625,0.07835223670303822,-0.024750410374999046,-0.2267792956292629
1783338523269364700,8.40336474609375,0.05645370862782001,-0.04788695581257343,-0.19111206218153237
1783338523279338000,8.413337890625,0.03893558759391308,-0.028648586857318876,-0.1364873225465417
1783338523289311000,8.42331103515625,0.02313946804702282,-0.045723055776953694,-0.09403145187199115
1783338523299283700,8.43328369140625,-0.007109466679021716,-0.07557225059568881,-0.08368862929493188
1783338523309256700,8.443256591796874,-0.03172960173785686,-0.13084814761579036,-0.02554477562308311
1783338523319230000,8.45322998046875,-0.047805122748017306,-0.20403788698911665,-0.026418343587219714
1783338523329203200,8.463203125,-0.03276763954870403,-0.15417057101428508,-0.033416531911492346
1783338523339176200,8.47317626953125,-0.03704948158636689,-0.09329846142232417,0.04434007698595523
1783338523349149000,8.48314892578125,-0.03181917971745133,-0.06508183624148368,0.09447188911587
1783338523359122000,8.493121826171874,-0.007555529946088791,-0.04063654629290104,0.12390168947875499
1783338523369095200,8.50309521484375,0.013650778081268071,-0.017011925077438355,0.1402025436773896
1783338523379069200,8.513069091796876,0.02941957122981548,-0.022240473380684852,0.17293810758739708
1783338523389042200,8.523042236328125,0.04978139125704765,-0.061363107979297636,0.15121259799152612
1783338523399015200,8.53301513671875,0.06224281342327594,-0.1111433301925659,0.14227058212310076
1783338523408988000,8.54298779296875,0.05546184804625809,-0.1139449436098337,0.13174217384606599
1783338523418961200,8.552961181640624,0.05951433830745518,-0.149698394036293,0.12187719791382551
1783338523428934100,8.56293408203125,0.05366444323547184,-0.17358721914589403,0.09701426707506179
1783338523438907100,8.5729072265625,0.046426235610246655,-0.16527005717754362,0.07932283530086279
1783338523448880000,8.582880126953125,0.009678513449430465,-0.13331716807782648,0.03947743938565254
1783338523458853000,8.59285302734375,0.013333674956113099,-0.11431026979088782,0.012863865487277507
1783338523468826000,8.602826171875,0.013751608107239008,-0.08944061695039272,-0.012159516610205173
1783338523478799000,8.612799072265625,0.0007430003870278597,-0.06396072325706481,-0.027775018893182277
1783338523488773000,8.622773193359375,-0.020278160331770777,-0.0511427427381277,-0.05020020119100809
1783338523498746000,8.63274609375,-0.02670037539899349,-0.06333177770376205,-0.06611965485662222
1783338523508718800,8.64271875,-0.04190196311883628,-0.0670242024809122,-0.07785539309680461
1783338523518692000,8.652692138671876,-0.04718136482648551,-0.06745441059172153,-0.09899141236692667
1783338523528665000,8.6626650390625,-0.044279432839900254,-0.091493457826972,-0.10913725106716156
1783338523538638000,8.67263818359375,-0.04969780462682247,-0.09660393270850182,-0.10252046327590941
1783338523548611000,8.682611083984375,-0.044372225689887995,-0.06169044023752212,-0.09102116414010525
1783338523558584000,8.692583984375,-0.028330168557912108,-0.07974573688805103,-0.055065469139814374
1783338523568557000,8.70255712890625,-0.010712678802758455,-0.08678630304932594,-0.03588555237352848
1783338523578530000,8.712530029296875,-0.01483224295079708,-0.07158522678613663,0.011712649625539778
1783338523588503000,8.7225029296875,-0.003056976417824626,-0.056097150275111196,0.021751520819962022
1783338523598476300,8.732476318359375,0.014382745617628097,-0.0708890612155199,0.0226087221711874
1783338523608450000,8.742449951171874,0.024117957690358162,-0.059958501878380775,0.054416065320372575
1783338523618423000,8.752423095703126,0.03888414966762066,-0.05284136334955692,0.04527268166095018
1783338523628396000,8.76239599609375,0.03285582928881049,-0.05100421105027198,0.026841829696297646
1783338523638369000,8.772369140625,0.03542845625579357,-0.046102995005249975,0.02024550017118454
1783338523648342000,8.782342041015625,0.01825637218058109,-0.02892915736436844,0.015137655638158321
1783338523658315300,8.792315185546874,-0.0196808520257473,-0.020939327654242515,0.01910422118157148
1783338523668288000,8.8022880859375,-0.04393558783829212,-0.022764789515733717,0.020915654517710207
1783338523678261000,8.812260986328125,-0.0641571226119995,-0.05295768320560455,0.00985474679917097
1783338523688234000,8.82223388671875,-0.0890536634594202,-0.08483224637210368,0.01523614757657051
1783338523698207200,8.832207275390624,-0.09373093455545603,-0.09485445869266987,0.01421703366190195
1783338523708180200,8.84218017578125,-0.10374262548200786,-0.11163374405801296,0.03476180904060602
1783338523718154200,8.852154296875,-0.1170299770783633,-0.1409247204720974,0.031790976536273954
1783338523728127000,8.862126953125,-0.10519457785598933,-0.14651801043450832,0.03272796512544155
1783338523738100000,8.872099853515625,-0.11304711798727511,-0.1642518200457096,0.052509647177159786
1783338523748073200,8.8820732421875,-0.10200893355719745,-0.15881109029650686,0.06247516087442636
1783338523758046200,8.892046142578126,-0.09124379391483962,-0.12790040372610093,0.049427463252842425
1783338523768019200,8.902019287109376,-0.061383566245436665,-0.10356500389277934,0.023236790941655636
1783338523777992000,8.911991943359375,-0.02899681577309966,-0.07625789477229118,0.009541150805354118
1783338523787965200,8.921965087890625,-0.004207534692436456,-0.07219897477030754,-0.016776070494949818
1783338523797938200,8.931938232421874,0.041937107497453684,-0.03859773394167423,-0.045373511686921116
1783338523807911200,8.9419111328125,0.07175598024316132,-0.022912089031934736,-0.07891133189052343
1783338523817884000,8.9518837890625,0.09663549689054489,-0.006211714121699333,-0.09793284322470426
1783338523827857000,8.96185693359375,0.12150967977568507,0.00946224035024643,-0.12391717930883168
1783338523837831000,8.971830810546875,0.13436813843548298,0.015711363872885704,-0.135518769775331
1783338523847804200,8.98180419921875,0.1473117911607027,0.02308627655506134,-0.13243424776345492
1783338523857777200,8.991777099609376,0.14408932198286056,0.017701076385378836,-0.13033113800436258
1783338523867750100,9.001750244140625,0.10859130762219428,0.006914893954992294,-0.11445786156803368
1783338523877723000,9.011722900390625,0.07078487018868326,0.006751812347769737,-0.10789455752968788
1783338523887696100,9.021696044921875,0.023080431336164473,-0.008039514070749283,-0.1012228246808052
1783338523897669000,9.031669189453124,-0.02719385800436139,-0.01961421653032303,-0.0770978527277708
1783338523907642000,9.04164208984375,-0.07001110933721065,-0.05959317569732666,-0.06613514468669891
1783338523917615000,9.051614990234375,-0.06577157207131386,-0.09966975001990795,-0.030171850901842115
1783338523927588000,9.061588134765625,-0.07445771348252891,-0.11885200487375258,-0.03182809367626905
1783338523937561000,9.07156103515625,-0.07726261483542621,-0.12254209156334399,-0.013871873486042022
1783338523947534000,9.0815341796875,-0.05330656970851123,-0.10384265179038048,-0.008129238180816173
1783338523957508000,9.091508056640626,-0.03208557556867599,-0.10501111104786395,0.0019359364986419676
1783338523967481000,9.101481201171875,-0.02886537141315639,-0.10376198776960373,0.01731178480684757
1783338523977454000,9.1114541015625,-0.012113631641864776,-0.12910101168751717,0.01622486635297537
1783338523987427000,9.121427001953125,-0.013386866448074578,-0.11053659647107124,0.019599018961191175
1783338523997400000,9.131400146484374,-0.0003261632144451141,-0.08128186041414737,0.030224165610969064
1783338524007373000,9.141373046875,0.016163199293613432,-0.05586217247545719,0.03197451640963554
1783338524017346000,9.151345947265625,0.004798997779563069,-0.06106792442500591,0.0561775220349431
1783338524027319300,9.1613193359375,0.011273673686385153,-0.08410276305377483,0.04269990856349468
1783338524037292000,9.1712919921875,0.0084352353900671,-0.08228606902062892,0.047096389956772323
1783338524047265000,9.18126513671875,0.005037482710555196,-0.07479600552618502,0.0514957939594984
1783338524057238000,9.191238037109375,0.0007302139706909656,-0.06492635341882705,0.046913726866245266
1783338524067212000,9.2012119140625,-0.013217720426246523,-0.06209609842896461,0.02029109287858009
1783338524077185300,9.211185302734375,-0.03695047819130123,-0.05415712212324142,-0.008905483250319958
1783338524087158000,9.221157958984374,-0.06142156016826629,-0.06137713650465011,-0.016127251197397708
1783338524097131000,9.231131103515626,-0.061546063330769535,-0.07008183648586273,-0.04036795848459005
1783338524107104000,9.24110400390625,-0.04614084279760718,-0.07177928805351257,-0.07838175505846738
1783338524117077000,9.251076904296875,-0.024136004803702232,-0.07690905215740203,-0.08131751624941826
1783338524127050200,9.26105029296875,-0.0026451076813042164,-0.09549801729321479,-0.06958470061868428
1783338524137023000,9.27102294921875,0.008524667239189147,-0.08005085731446743,-0.0664624769449234
1783338524146996000,9.280995849609376,0.019207462360337376,-0.06701192752122878,-0.06286036079972981
1783338524156969000,9.290968994140625,0.04448854554593563,-0.051746553850173946,-0.04744944117814302
1783338524166942200,9.300942138671875,0.05013093534708023,-0.0360720148563385,-0.03467354623526334
1783338524176915200,9.310915283203125,0.044299818040803074,-0.0338847339451313,-0.03642535833865404
1783338524186889200,9.32088916015625,0.04408522544205189,-0.056066170614957805,-0.02823269953280687
1783338524196861000,9.33086083984375,0.03888181158006191,-0.06053133333027363,-0.028293197548389434
1783338524206834200,9.340834228515625,0.0296627323359251,-0.06332710152864456,-0.037388942673802376
1783338524216807200,9.35080712890625,0.023650413243845102,-0.07130524080097675,-0.0461693382397294
1783338524226781200,9.36078125,0.005843611461669207,-0.0551297665476799,-0.020500351715087888
1783338524236754200,9.370754150390624,-0.014656301862001418,-0.0588069937556982,-0.045694121943414205
1783338524246727000,9.380726806640626,0.008798881070688366,-0.07219079146385192,-0.06642039136886596
1783338524256700200,9.3907001953125,0.002501169165968895,-0.046209377989172934,-0.052602293896675104
1783338524266673200,9.400673095703125,0.007635755575448274,-0.06703589291870593,-0.07176759761571884
1783338524276646100,9.410646240234374,0.0068324763685464855,-0.0543541060000658,-0.06784487121403217
1783338524286619100,9.420619140625,0.0009206219762563705,-0.0714466950982809,-0.0840972100958228
1783338524296592000,9.430591796875,-0.0073969783835113045,-0.051448447686433786,-0.09247866947203874
1783338524306565000,9.440565185546875,-0.00572414980046451,-0.032442718443274496,-0.10531798503994941
1783338524316538000,9.4505380859375,-0.010293941934034228,-0.030255437532067296,-0.10870587391257286
1783338524326510600,9.460510498046874,-0.014008578542992471,-0.03347790670990944,-0.07369505854696035
1783338524336484600,9.470484619140626,-0.0038606940161436793,-0.03926175080835819,-0.07078326275348663
1783338524346457600,9.48045751953125,0.014296820899844168,-0.058414195045828815,-0.06426788951009511
1783338524356430800,9.490430908203125,0.024441928947716948,-0.0642623365521431,-0.07340922734290362
1783338524366403800,9.50040380859375,0.057418827332928773,-0.05934007771909237,-0.047882279637455935
1783338524376376600,9.51037646484375,0.059766194176673886,-0.05762567501664161,-0.04439326847791671
1783338524386349600,9.520349609375,0.05474734310135245,-0.04183364712297916,-0.02512450438439846
1783338524396322800,9.53032275390625,0.032894553864002224,-0.06598842969238758,-0.03477437626123428
1783338524406295800,9.5402958984375,0.022340865015238524,-0.060496846538782116,-0.02518763274848461
1783338524416268800,9.550268798828125,0.02648819395303726,-0.06109715051949024,-0.005385492430627346
1783338524426241500,9.560241455078126,0.04452836609967053,-0.052287821120023725,-0.025645313388109204
1783338524436214800,9.57021484375,0.045233226433396334,-0.02374678629040718,-0.01621463721990585
1783338524446187800,9.580187744140625,0.030319223483279346,-0.0299678527623415,-0.026871932573616503
1783338524456160800,9.590160888671875,0.023912279050424694,-0.04650163893401622,-0.04789309329241514
1783338524466134800,9.600134765625,0.031079101939871904,-0.03999123412668705,-0.06009732582718134
1783338524476107500,9.610107421875,0.022646131572127342,-0.05232756860852241,-0.07398059749007224
1783338524486080800,9.620080810546876,0.02194996600151062,-0.04462649271190166,-0.06543138033151626
1783338524496053800,9.6300537109375,0.028150574207305906,-0.04306172761321068,-0.0817553231447935
1783338524506026800,9.64002685546875,0.05291610908620059,-0.01956570121347904,-0.07937924166321754
1783338524515999700,9.649999755859374,0.026610359027981756,-0.010898410633206367,-0.0871931302845478
1783338524525972500,9.659972412109376,0.015591609950736164,-0.027130583509802818,-0.08425269291847944
1783338524535945700,9.66994580078125,0.021010127868130803,-0.03626549160182476,-0.08448211776018143
1783338524545918700,9.679918701171875,0.013158829845860599,-0.06988426808714866,-0.0782677732899785
1783338524555891700,9.6898916015625,-0.004230769437551498,-0.054281625285744664,-0.06819383078217506
1783338524565864700,9.69986474609375,0.009929857861995696,-0.056419221836328505,-0.06159633221328258
1783338524575837700,9.709837646484376,0.022710428979992866,-0.04881985274851322,-0.048635728353261944
1783338524585810700,9.719810791015625,0.015759221602603794,-0.026644261297583578,-0.04317833973020315
1783338524595784700,9.72978466796875,0.03272029327563941,-0.02265139226913452,-0.038270401683449744
1783338524605757700,9.7397578125,0.021865210327506063,-0.04742284543216228,-0.02762275094091892
1783338524615730700,9.749730712890624,0.021265490868687627,-0.06346972486972809,0.007414075648784637
1783338524625704000,9.759703857421876,0.0028559739530086515,-0.07435001532435417,0.032839608806371684
1783338524635676700,9.7696767578125,-0.0019984072756022214,-0.1042161612778902,0.06579904460012913
1783338524645649700,9.779649658203125,-0.027770634979009626,-0.1297743809044361,0.08912468286901712
1783338524655622700,9.78962255859375,-0.047045828813314435,-0.1475204654753208,0.1202434592321515
1783338524665595600,9.799595703125,-0.08719546837210655,-0.1541734936237335,0.12948796517848968
1783338524675569000,9.80956884765625,-0.10632328962497413,-0.1389110425621271,0.12857903364002704
1783338524685541600,9.819541748046875,-0.12402787314169109,-0.15172317786216735,0.12073095048815011
1783338524695514600,9.8295146484375,-0.14578962309472263,-0.14158523020744324,0.09403145187199115
1783338524705487600,9.839487548828124,-0.14023666514270006,-0.1463531752616167,0.06989595852494239
1783338524715461600,9.849461669921874,-0.1283452248841524,-0.14137363328337668,0.04314502198249101
1783338524725435000,9.859434814453126,-0.09253449131250381,-0.11550386348962784,-0.0010670447096228599
1783338524735407600,9.86940771484375,-0.05367664512991905,-0.11437339815497398,-0.00969488006234169
1783338524745380600,9.879380615234375,-0.026988471625372767,-0.10201251375377178,-0.028532559262216088
1783338524755353600,9.889353515625,0.0074193363457918165,-0.09457797983884811,-0.01973433577865362
1783338524765326800,9.899326904296874,0.04222929537706077,-0.07743512185811996,-0.024291852952539918
1783338524775299800,9.9092998046875,0.09118775287866591,-0.06377893694937228,-0.03440057451277971
1783338524785272600,9.9192724609375,0.08690452260151504,-0.02744856341779232,-0.04775748421400785
1783338524795245600,9.92924560546875,0.11294833378791809,-0.004255903878808021,-0.06783756469041109
1783338524805218800,9.93921875,0.13125029867589472,0.017037644040584565,-0.09126695559471845
1783338524815191800,9.94919189453125,0.13122107258141041,0.023550971457362173,-0.09435293891131877
1783338524825164800,9.959164794921875,0.1126386102516204,0.013169278174638747,-0.08954904576092958
1783338524835137500,9.969137451171875,0.08605565068721771,-0.010890227326750756,-0.1040481112346053
1783338524845111600,9.979111572265625,0.06437164214551448,-0.04908581020832062,-0.10219897623658179
1783338524855084500,9.98908447265625,0.027315950014069675,-0.05273965654075145,-0.10072218168228864
1783338524865057800,9.999057861328126,0.00019179624505341052,-0.052634442600607866,-0.09654518825858831
1783338524875030800,10.00903076171875,-0.02519406248927116,-0.05105506445467472,-0.07342617847770452
1783338524885003800,10.019003662109375,-0.042131095699593425,-0.05950023671686649,-0.07209960604906082
1783338524894976500,10.0289765625,-0.05580598530881106,-0.07066226672232151,-0.05956278055906295
1783338524904949800,10.03894970703125,-0.058330608415603634,-0.0810410373955965,-0.05200286669880151
1783338524914922800,10.0489228515625,-0.04171031300425529,-0.07898176677823067,-0.04490297156572342
1783338524924895700,10.058895751953125,-0.03771211021356284,-0.08565876032412052,-0.029611878931522367
1783338524934868700,10.06886865234375,-0.033751389889046544,-0.07500409531891346,-0.03397270448952913
1783338524944841700,10.078841796875,-0.021455460482835767,-0.07209668343961238,-0.031926001092791555
1783338524954814700,10.088814697265626,-0.027301848423480986,-0.06901683760285376,-0.03301379632949829
1783338524964787700,10.09878759765625,-0.0020896657556295395,-0.05754208838641643,-0.035168928536772726
1783338524974761700,10.10876171875,-0.0016628917109221218,-0.0561316370666027,-0.0092217095926404
1783338524984734700,10.118734619140625,0.01047528985030949,-0.061946460825204844,0.003500409336388111
1783338524994707700,10.128707763671875,0.01631641709394753,-0.06672083562016487,0.0052335167393088335
1783338525004680700,10.1386806640625,0.029819384202361104,-0.0735556500762701,0.004555763608217239
1783338525014653700,10.14865380859375,0.023289105650782585,-0.09015139556825161,0.013435820156335829
1783338525024626700,10.158626708984375,0.02527830670662224,-0.08925240090191364,0.0005734159737825394
1783338525034599700,10.168599609375,0.018048355453088877,-0.09356383436024189,-0.009246259512007237
1783338525044572700,10.17857275390625,0.008229483684897423,-0.08139525766074657,-0.011500175918638705
1783338525054545700,10.188545654296876,-0.00853811124265194,-0.0762654935568571,-0.01850479398369789
1783338525064518700,10.1985185546875,-0.0033733488906174895,-0.05852993037998676,-0.015411504143476485
1783338525074491600,10.20849169921875,-0.008057634249329567,-0.07078676988482475,-0.015802841548621653
1783338525084465000,10.21846484375,-0.027104864546656608,-0.06489595828056335,-0.02618278126567602
1783338525094437600,10.228437744140624,-0.04081540999114513,-0.07769815670847892,-0.02276245142817497
1783338525104411600,10.23841162109375,-0.04976378253512084,-0.08049158681929111,-0.03209142078757286
1783338525114384600,10.248384521484375,-0.03755545834712684,-0.06439385397732257,-0.032898937778174875
1783338525124357600,10.258357666015625,-0.029078137381002307,-0.06819441530406474,-0.057468438628315924
1783338525134330600,10.26833056640625,-0.012663009152933955,-0.048291444960236546,-0.041054771704971786
1783338525144303900,10.278303955078124,0.003805895088985562,-0.04695288983285427,-0.04293576314598321
1783338525154276600,10.288276611328126,0.015493337208032608,-0.05851707089841365,-0.040867432439327236
1783338525164249600,10.29824951171875,0.024516017097234725,-0.06411503703594207,-0.02729483416080475
1783338525174222600,10.30822265625,0.011495792004466055,-0.06718786861002445,-0.0217655493453145
1783338525184195800,10.31819580078125,0.012423428243398666,-0.08443886314034461,-0.014983341859281062
1783338525194168800,10.3281689453125,0.00820442230887711,-0.10285422527492045,-0.0017255086183547972
1783338525204141600,10.3381416015625,-0.01724156911484897,-0.11050853942036629,-0.005782090532779693
1783338525214114600,10.348114501953125,-0.012739727650955318,-0.09447393494248389,-0.023201135106384753
1783338525224087800,10.358087890625,-0.02522745330221951,-0.08198796285688877,-0.01404752231389284
1783338525234061800,10.368061767578125,-0.004859057403728366,-0.07066402028799057,-0.038000060309469695
1783338525244034800,10.378034912109374,0.007384776489064097,-0.0674035571873188,-0.04625818556696176
1783338525254007800,10.3880078125,0.0014187076915055513,-0.055467620199918743,-0.038483752173185344
1783338525263980500,10.39798046875,0.013321253865957259,-0.059203299596905706,-0.05029898539036512
1783338525273953800,10.407953857421875,0.02463350599706173,-0.05113514395356178,-0.060454176440835
1783338525283926800,10.4179267578125,0.04123100505471229,-0.041483518511056895,-0.045025428901612756
1783338525293899800,10.427899658203126,0.03848557880409062,-0.04116787669062614,-0.04280103085041046
1783338525303872800,10.437872802734375,0.030645825089141723,-0.03491056986153126,-0.043077801965177055
1783338525313845800,10.447845703125,0.026321020692586898,-0.05861643961966037,-0.018138298758864402
1783338525323819300,10.4578193359375,0.019383914905786514,-0.06975801135897636,-0.017292495584487914
1783338525333792300,10.467792236328124,0.004388005825877189,-0.07082710189521313,-0.010096738861501217
1783338525343765200,10.47776513671875,0.0082914430052042,-0.0774333682924509,-0.018450433447957038
1783338525353738200,10.48773828125,-0.0007283142745494843,-0.07315700614750385,-0.029060382528603074
1783338525363712300,10.497712158203125,0.007508695129677653,-0.06815817494690418,-0.041269875760376454
1783338525373685200,10.507685302734375,0.008781929935887455,-0.060520227414369576,-0.06008300504088401
1783338525383658200,10.517658203125,0.010698431081697345,-0.05847556984424591,-0.04255173226445913
1783338525393631200,10.52763134765625,0.03207739226222038,-0.05734802711904049,-0.04214227468073368
1783338525403604200,10.537604248046875,0.0337848537672311,-0.05874444991350174,-0.044611879664659494
1783338525413577200,10.5475771484375,0.019794322337582708,-0.057875265863537785,-0.020798165617883203
1783338525423550200,10.55755029296875,0.01407411805987358,-0.06812135006785393,-0.015300737245380877
1783338525433523200,10.567523193359374,0.008011603150516747,-0.06880290259122848,-0.014830781646072863
1783338525443496200,10.57749609375,-0.007066869646310806,-0.07909925567805767,-0.007528934200108051
1783338525453469200,10.58746923828125,-0.015631941961124537,-0.0819645819813013,-0.013082768934965133
1783338525463442400,10.5974423828125,-0.009839256969094276,-0.07666998270452022,-0.02181611048877239
1783338525473415200,10.607415283203125,-0.022920856860280035,-0.06673603318929672,-0.02640373053997755
1783338525483388200,10.61738818359375,-0.024913491982221602,-0.06636544631123542,-0.0269461668536067
1783338525493361200,10.627361083984376,-0.02599536893479526,-0.06803542535007,-0.022468729178607462
1783338525503335200,10.637335205078125,-0.006094809743762016,-0.05980944879651069,-0.020582184779644012
1783338525513308200,10.64730810546875,0.01875796502716839,-0.06598667612671852,-0.021729601249098777
1783338525523281200,10.65728125,0.022330489751696585,-0.06855564983189105,-0.01818330694437027
1783338525533254100,10.667254150390624,0.018211363995075225,-0.08116963221132754,-0.02402472644895315
1783338525543227100,10.67722705078125,0.011465396866202354,-0.0849409674435854,-0.01810702683776617
1783338525553200000,10.6872001953125,0.010445406168699264,-0.06806348240077495,-0.02867635164707899
1783338525563173400,10.69717333984375,0.01023556281030178,-0.06916238355338573,-0.02604249601215124
1783338525573146000,10.70714599609375,0.016582301488518712,-0.062167994621396064,-0.03153670951426029
1783338525583119000,10.717119140625,-0.011563012021780013,-0.061902037161588666,-0.025391338627040384
1783338525593092000,10.727092041015625,-0.029323052052780983,-0.04833820671141147,-0.015581600013375281
1783338525603065300,10.7370654296875,-0.007428031108900904,-0.055980830419063564,-0.015388123267889022
1783338525613038300,10.747038330078125,-0.010330182291194796,-0.053714639052748675,-0.032443302965164185
1783338525623011000,10.757010986328124,-0.015151318837329744,-0.07341828743219375,-0.01664689115732908
1783338525632984000,10.766984130859376,0.008438157999515533,-0.06482815374135971,-0.021990590272843835
1783338525642958000,10.7769580078125,0.005537102795764803,-0.05443184741139412,-0.03619038053900003
1783338525652931300,10.786931396484375,0.010635375782847404,-0.06533142708837986,-0.03890840732604265
1783338525662904300,10.796904296875,0.011902034717798233,-0.06074526834189892,-0.040429625543951984
1783338525672877300,10.806877197265624,0.015101049954816698,-0.07094283722937107,-0.050376434540748596
1783338525682850000,10.81685009765625,0.03704465928077698,-0.06485328818261624,-0.05194909068495035
1783338525692823300,10.8268232421875,0.037788755646347996,-0.07272913612425327,-0.05726268692314625
1783338525702796300,10.83679638671875,0.03655424541532993,-0.05335691165626049,-0.059632046402990815
1783338525712769300,10.846769287109375,0.03323649916946888,-0.04321136521697044,-0.06445230616629123
1783338525722742300,10.8567421875,0.024967267996072767,-0.03764437873959541,-0.08283405829221009
1783338525732715000,10.866715087890626,-0.0002742138314992189,-0.025351298877596854,-0.08590864343196153
1783338525742688300,10.876688232421875,0.007666662170365452,-0.028688334345817565,-0.0756356712207198
1783338525752661200,10.8866611328125,0.024099326055124402,-0.029414310532808303,-0.0832478997901082
1783338525762634200,10.89663427734375,0.03363689666390419,-0.05667874955534934,-0.06916764425039292
1783338525772607200,10.906607177734376,0.02724807240962982,-0.059304421883821484,-0.04557312591224909
1783338525782581000,10.9165810546875,0.021467808507755398,-0.06446224303841591,-0.017259177836775778
1783338525792554200,10.92655419921875,0.011530351861193775,-0.048965398699045176,0.0025914777979254722
1783338525802527200,10.93652734375,0.02171148107051849,-0.05800269163548946,0.027188158915936945
1783338525812500200,10.946500244140625,0.009381064872816204,-0.05457680884003639,0.025574001717567442
1783338525822473200,10.95647314453125,0.000718888859078288,-0.07717500961720943,0.04271919778585434
1783338525832446200,10.9664462890625,-0.029269933626055716,-0.08571019825041294,0.03227525292187929
1783338525842419200,10.976419189453125,-0.045052024647593496,-0.10525427215397358,0.029625322934985158
1783338525852392200,10.98639208984375,-0.0644143122434616,-0.11411387043595313,0.01880553049594164
1783338525862365200,10.996365234375,-0.0779910021752119,-0.11197042866647243,-0.0006219312906265258
1783338525872338200,11.006338134765626,-0.08919687132239341,-0.11707973450422286,-0.00549509028494358
1783338525882311200,11.016311279296875,-0.08030395529270172,-0.09145078772902489,-0.031212007604539394
1783338525892284200,11.0262841796875,-0.05686755012571811,-0.08134031260311603,-0.03706336398124695
1783338525902257200,11.036257080078125,-0.045379356905817986,-0.07135024898648262,-0.02888590274453163
1783338525912231200,11.046231201171874,-0.009526537758111953,-0.0450911876142025,-0.03267740398198366
1783338525922204200,11.0562041015625,0.01573240666091442,-0.03429682187736034,-0.020195523549616335
1783338525932177400,11.066177490234375,0.03665368720181286,-0.044668578287959095,-0.026307576689124104
1783338525942150100,11.076150146484375,0.061597501257061954,-0.04301613490581512,-0.021648644967377183
1783338525952123100,11.086123046875,0.07280578155703842,-0.04532850350141525,-0.001070259580016136
1783338525962096000,11.09609619140625,0.07548289181180298,-0.05531564450860023,0.010381693282723425
1783338525972069400,11.1060693359375,0.06090893447101116,-0.06353460679948329,-0.003468552893400192
1783338525982042400,11.11604248046875,0.03555237489640713,-0.0483849684625864,-0.007853343848884106
1783338525992015000,11.12601513671875,0.011071356047317385,-0.07034837846755981,-0.006738076083362102
1783338526001988000,11.135988037109374,-0.016616276823356747,-0.08417582828998565,-0.009905600203573704
1783338526011961300,11.14596142578125,-0.028212533527612684,-0.0913543416172266,-0.026734277668595312
1783338526021934300,11.155934326171876,-0.03567161736190319,-0.07022855148017407,-0.04097761481553316
1783338526031907300,11.1659072265625,-0.03143449124880135,-0.07135141803026199,-0.043594519315659996
1783338526041880000,11.175880126953125,-0.01867262483127415,-0.05853636012077331,-0.05476502488851547
1783338526051853000,11.18585302734375,-0.014962591332197189,-0.06327566360235214,-0.06683569417148828
1783338526061827000,11.1958271484375,-0.003156418204307556,-0.04586451007425785,-0.06828355489224196
1783338526071800300,11.20580029296875,0.0003003711860626936,-0.05092705416083335,-0.04394610923230648
1783338526081773300,11.215773193359375,0.012199629424884915,-0.054367550003528595,-0.03277501913756132
1783338526091746000,11.22574609375,0.0019961422532796856,-0.07021978365182877,-0.00744008687287569
1783338526101719000,11.235718994140624,0.013870046855136752,-0.0821872848212719,-0.014725275444984436
1783338526111692300,11.2456923828125,0.029360534518957135,-0.07558043390214443,-0.011173135921359061
1783338526121665300,11.255665283203125,0.02302957793176174,-0.06401566831469535,-0.01624298653155565
1783338526131638300,11.26563818359375,0.0212841955691576,-0.07040683065652847,-0.002430149756371975
1783338526141611000,11.275611083984375,0.012330489262938499,-0.06183657070994377,0.0022515783190727233
1783338526151584300,11.285584228515624,0.019879589468240737,-0.060866264373064034,-0.01753361086398363
1783338526161557200,11.29555712890625,0.014057166925072669,-0.06391688411533832,-0.019201836337149142
1783338526171530200,11.3055302734375,0.021989786555245517,-0.06767126821279526,-0.0239899473965168
1783338526181503200,11.315503173828125,0.022996844705939292,-0.06385609383881091,-0.03714548930674791
1783338526191476200,11.325476318359375,0.017853052076697348,-0.05604629687070846,-0.05964461362361908
1783338526201449200,11.33544921875,0.01095562071315944,-0.04304068482518196,-0.05642565157711506
1783338526211423200,11.34542333984375,0.010968041803315282,-0.04308861562013626,-0.04895312373936176
1783338526221396200,11.355396240234375,0.004603109881281852,-0.04988952780663967,-0.030376141302287576
1783338526231369200,11.365369140625,0.01577325012795627,-0.06646364598870277,-0.029952362932264803
1783338526241342200,11.37534228515625,0.013196677638217805,-0.05474924279749393,-0.031791561058163643
1783338526251315200,11.385315185546874,0.008380947919562459,-0.06042904199957847,-0.026493746910989283
1783338526261288200,11.3952880859375,0.015547186287119983,-0.0743225427955389,-0.03470511041730642
1783338526271261200,11.40526123046875,0.008829203143715858,-0.07311842770278454,-0.01633884812146425
1783338526281234200,11.415234130859375,-0.0027606238197535275,-0.09403086735010147,-0.017190788775682447
1783338526291207400,11.42520751953125,-0.009520692539215087,-0.09356500340402125,-0.0010690905362367629
1783338526301180200,11.43518017578125,0.001438581435754895,-0.09137947605848312,-0.01637245813012123
1783338526311153200,11.445153076171875,-0.0006897358298301697,-0.07836392714083194,-0.006711772598326206
1783338526321126000,11.4551259765625,-0.009715849785134196,-0.0809054283171892,0.013403086930513381
1783338526331099000,11.465098876953125,0.0006803834795951843,-0.06456161175966263,0.01067950718551874
1783338526341072000,11.47507177734375,0.0030196400821208952,-0.06187748724222183,0.01645867510885
1783338526351046000,11.4850458984375,-0.004709492865204811,-0.07530161696076393,0.025972937907278535
1783338526361019000,11.495018798828125,-0.007737316253781318,-0.07541969038248061,0.018925942005217074
1783338526370991900,11.504991943359375,0.0012146364867687224,-0.0823655639976263,0.01340834762752056
1783338526380965000,11.514965087890625,-0.008622866916656494,-0.07046352927982807,0.001792436374723911
1783338526390937900,11.524937744140624,-0.010246595660969615,-0.06242927590608596,-0.022274375650286674
1783338526400910800,11.534910888671876,-0.0018477467585355043,-0.06772504422664642,-0.04372165282666683
1783338526410883800,11.5448837890625,0.015465864679217338,-0.07260112583041191,-0.044157998417317865
1783338526420856800,11.55485693359375,0.03428513143956661,-0.0694470457136631,-0.029673838251829145
1783338526430829800,11.564829833984374,0.04187514817714691,-0.06013502748906612,-0.027412907582521438
1783338526440802800,11.574802734375,0.061951137000322336,-0.048612347477674483,-0.02526917355209589
1783338526450775800,11.58477587890625,0.04464176334626972,-0.025602058768272398,-0.04285100747197866
1783338526460748800,11.594748779296875,0.05059862592406571,-0.034328970581293104,-0.04683569319397211
1783338526470722000,11.60472216796875,0.0358235930532217,-0.04174012362062931,-0.057229953697323796
1783338526480694800,11.61469482421875,0.022617489999532697,-0.0702612847059965,-0.04277034345120191
1783338526490667800,11.624667724609376,0.00791150377690792,-0.08109247532188892,-0.04172054213732481
1783338526500641800,11.634641845703126,-0.021239260448887944,-0.08647066122889518,-0.022395079420506954
1783338526510614800,11.64461474609375,-0.01776530072800815,-0.0815028096884489,-0.018802607886493204
1783338526520588000,11.654588134765625,-0.030552886108681558,-0.08004676566123962,-0.01134177048653364
1783338526530561000,11.66456103515625,-0.029421836252138015,-0.07778291238248347,-0.019831658673286436
1783338526540533800,11.67453369140625,-0.037058103284239766,-0.08807984999120234,-0.03064794398099184
1783338526550506800,11.6845068359375,-0.03709083651006222,-0.09667699794471263,-0.0395595647111535
1783338526560480000,11.69447998046875,-0.004652721176669001,-0.07318740128576755,-0.051529111707210536
1783338526570453000,11.704452880859375,0.019503157371282578,-0.06470832675397396,-0.058554188038408755
1783338526580426000,11.714426025390624,0.03835406137891113,-0.06145838504731655,-0.03415507531911135
1783338526590398700,11.724398681640626,0.04422375712990761,-0.04392272835671902,-0.042480128332972523
1783338526600371700,11.734371826171875,0.04279869276285171,-0.03451017236709594,-0.03687719375938177
1783338526610345000,11.744344970703125,0.05254259959869086,-0.04554536112248897,-0.02031768862456083
1783338526620318000,11.75431787109375,0.051715574190020555,-0.051202363970875735,-0.023849662142992018
1783338526630291000,11.764291015625,0.058551557689905165,-0.05691255831122398,-0.022403262726962567
1783338526640263700,11.774263671875,0.038576179696992036,-0.06334989788234234,-0.021809096226096152
1783338526650237000,11.78423681640625,0.019929931415989994,-0.07490414207577704,-0.02237345211058855
1783338526660210000,11.7942099609375,0.008633899767324328,-0.07764028904139995,-0.02933686138242483
1783338526670184000,11.804183837890625,-0.02182955449223518,-0.07186345920562744,-0.02829115172177553
1783338526680157000,11.814156982421874,-0.036790392258763314,-0.08435410746634006,-0.007242810735106468
1783338526690129700,11.824129638671875,-0.03257891204357147,-0.09309621684849262,-0.004802724106609821
1783338526700103000,11.83410302734375,-0.02656009014546871,-0.08446165949404238,0.00002396539747714996
1783338526710076000,11.844075927734375,-0.029487302703782914,-0.08016308551728725,0.02220657111108303
1783338526720049000,11.854048828125,-0.015582257600501179,-0.08857727811932563,0.023592472511529922
1783338526730022000,11.86402197265625,-0.013842574326321482,-0.10715747542679309,0.01951046389490366
1783338526739995000,11.873994873046875,-0.00474222609102726,-0.10479483794867991,0.035765140864253045
1783338526749968000,11.8839677734375,-0.009209799959138036,-0.09089373836815356,0.041029345002770425
1783338526759940900,11.89394091796875,-0.016373554108664392,-0.08782324488162994,0.03655775254666805
1783338526769913900,11.903913818359374,-0.005986746259406209,-0.08824877681732177,0.04066109621226787
1783338526779886800,11.913886962890626,-0.008162336732819676,-0.07768529722690581,0.03593611351698637
1783338526789859800,11.92385986328125,-0.02653963187932968,-0.0676695146471262,0.014977204379439352
1783338526799832800,11.933832763671875,-0.011195347753167151,-0.061633741614222526,0.022631226263940332
1783338526809805800,11.943805908203124,-0.002715104177594185,-0.05319850622415542,-0.010279401952028274
1783338526819779800,11.95377978515625,-0.0047832156885415315,-0.0700350747346878,-0.027539748832583425
1783338526829752800,11.9637529296875,-0.00011040157191455364,-0.052045244535803795,-0.04787205050438642
1783338526839726000,11.97372607421875,0.008177534301951526,-0.044427170747518535,-0.06017506723850965
1783338526849698800,11.98369873046875,0.006444280768558383,-0.048994040271639824,-0.07352817754745483
1783338526859671800,11.993671875,-0.012218261060118675,-0.058659109717607495,-0.102610771907866
1783338526869644800,12.003644775390624,-0.005243672807142138,-0.06479425147175788,-0.09529401915371417
1783338526879618000,12.0136181640625,0.0025789836425334214,-0.06679974607527256,-0.07072218021601438
1783338526889591000,12.023591064453125,-0.005435395986959338,-0.045779754400253295,-0.06864683524668216
1783338526899563800,12.033563720703125,0.014155439667776226,-0.03631342239677906,-0.03922784853875637
1783338526909536800,12.043536865234374,0.010263108404353261,-0.04722878416478633,-0.04967413149029016
1783338526919509800,12.053509765625,0.02219948378317058,-0.04749123449325561,-0.0400064316958189
1783338526929483000,12.06348291015625,0.026377061728760597,-0.039218496188521385,-0.04187368687242269
1783338526939456000,12.0734560546875,0.047035234354063864,-0.03873626562952995,-0.045991351324319835
1783338526949428700,12.0834287109375,0.045239656174182886,-0.053073418539762496,-0.0383159943908453
1783338526959401700,12.093401611328124,0.02862403693795204,-0.07282032153904437,-0.05306114358007907
1783338526969375000,12.103375,0.007507526085898279,-0.06427811864316463,-0.035059622943401335
1783338526979349000,12.113348876953125,-0.003614025778695941,-0.07351648710966109,-0.04636164594143629
1783338526989322000,12.123322021484375,-0.0021965601962059735,-0.07363631409704685,-0.034410803645849225
