time,seconds_elapsed,z,y,x
1783338514920655600,0.054655517578125,-0.9574432373046875,-0.2769622802734375,-0.043212890625
1783338514930628900,0.06462890625,-0.96484375,-0.2935791015625,-0.0467071533203125
1783338514940601900,0.074601806640625,-0.977142333984375,-0.306732177734375,-0.0319366455078125
1783338514950574800,0.084574951171875,-0.9900665283203125,-0.314971923828125,0.003570556640625
1783338514960547800,0.0945478515625,-0.996490478515625,-0.3316802978515625,0.0074462890625
1783338514970520800,0.104520751953125,-0.969879150390625,-0.31793212890625,-0.0224609375
1783338514980493800,0.114493896484375,-0.944915771484375,-0.2911529541015625,-0.076690673828125
1783338514990466800,0.124466796875,-0.9419097900390625,-0.2822113037109375,-0.147979736328125
1783338515000439800,0.134439697265625,-0.931182861328125,-0.2450408935546875,-0.20068359375
1783338515010413000,0.1444130859375,-0.896942138671875,-0.2330474853515625,-0.2671051025390625
1783338515020385800,0.1543857421875,-0.8664703369140625,-0.2379608154296875,-0.3070068359375
1783338515030358800,0.16435888671875,-0.8606719970703125,-0.24169921875,-0.2938995361328125
1783338515040331800,0.174331787109375,-0.8948822021484375,-0.222381591796875,-0.2266998291015625
1783338515050304800,0.1843046875,-0.9545440673828125,-0.1993560791015625,-0.1705322265625
1783338515060278000,0.194278076171875,-0.9852294921875,-0.194427490234375,-0.1488037109375
1783338515070250800,0.204250732421875,-0.98797607421875,-0.2040557861328125,-0.12286376953125
1783338515080223700,0.2142236328125,-0.993438720703125,-0.207427978515625,-0.097503662109375
1783338515090196700,0.22419677734375,-1.0103607177734375,-0.21221923828125,-0.067474365234375
1783338515100170000,0.234169921875,-1.045623779296875,-0.204315185546875,-0.0077362060546875
1783338515110143000,0.24414306640625,-1.066650390625,-0.1751251220703125,0.052642822265625
1783338515120115700,0.25411572265625,-1.0954437255859375,-0.14886474609375,0.076904296875
1783338515130088700,0.264088623046875,-1.128631591796875,-0.122222900390625,0.0547943115234375
1783338515140062000,0.27406201171875,-1.10888671875,-0.0794677734375,-0.0266265869140625
1783338515150035000,0.284034912109375,-1.0702056884765625,-0.0380401611328125,-0.07965087890625
1783338515160007700,0.294007568359375,-0.988555908203125,0.0145111083984375,-0.078125
1783338515169980700,0.303980712890625,-0.901702880859375,-0.041412353515625,-0.0179290771484375
1783338515179954000,0.313953857421875,-0.8664093017578125,-0.1530609130859375,0.0458984375
1783338515189927000,0.323927001953125,-0.8726348876953125,-0.196929931640625,0.04791259765625
1783338515199900000,0.33389990234375,-0.943511962890625,-0.25616455078125,-0.0071563720703125
1783338515209872600,0.34387255859375,-1.0170745849609375,-0.304931640625,-0.0300140380859375
1783338515219846000,0.353845947265625,-0.9920196533203125,-0.3791351318359375,-0.066650390625
1783338515229819000,0.36381884765625,-0.9208221435546875,-0.4116363525390625,-0.09820556640625
1783338515239791900,0.3737919921875,-0.8906707763671875,-0.4138946533203125,-0.115631103515625
1783338515249764900,0.383764892578125,-0.9010162353515625,-0.4519500732421875,-0.1580657958984375
1783338515259737900,0.39373779296875,-0.8777923583984375,-0.4677734375,-0.182861328125
1783338515269710800,0.4037109375,-0.905609130859375,-0.40838623046875,-0.1507720947265625
1783338515279683800,0.413683837890625,-0.704376220703125,-0.337066650390625,-0.032073974609375
1783338515289656800,0.42365673828125,-0.6379241943359375,-0.2677154541015625,0.070465087890625
1783338515299629800,0.4336298828125,-0.5573272705078125,-0.25341796875,0.09832763671875
1783338515309602300,0.443602294921875,-0.6004180908203125,-0.248748779296875,0.167877197265625
1783338515319575300,0.4535751953125,-0.7564544677734375,-0.29986572265625,0.160736083984375
1783338515329548300,0.46354833984375,-0.8454437255859375,-0.3646392822265625,0.050872802734375
1783338515339521500,0.473521484375,-0.8706512451171875,-0.353363037109375,-0.049713134765625
1783338515349494300,0.483494384765625,-0.9343414306640625,-0.3336334228515625,-0.0716400146484375
1783338515359467300,0.49346728515625,-1.0218505859375,-0.3049774169921875,-0.02001953125
1783338515369440300,0.503440185546875,-1.0838623046875,-0.221771240234375,0.03448486328125
1783338515379413200,0.513413330078125,-1.107086181640625,-0.12017822265625,0.0494537353515625
1783338515389386500,0.523386474609375,-1.073394775390625,-0.0714263916015625,0.014892578125
1783338515399359200,0.533359130859375,-1.0478363037109375,-0.1797027587890625,0.002288818359375
1783338515409332200,0.543332275390625,-0.952880859375,-0.3271484375,-0.0238037109375
1783338515419305200,0.55330517578125,-0.8486785888671875,-0.33477783203125,-0.0720672607421875
1783338515429278500,0.563278564453125,-0.8097991943359375,-0.2988433837890625,-0.0885162353515625
1783338515439251500,0.57325146484375,-0.800384521484375,-0.25299072265625,-0.066802978515625
1783338515449225500,0.5832255859375,-0.772003173828125,-0.1887969970703125,0.001495361328125
1783338515459198200,0.5931982421875,-0.754974365234375,-0.148406982421875,0.0277557373046875
1783338515469171200,0.603171142578125,-0.781097412109375,-0.1591796875,-0.0691680908203125
1783338515479144400,0.61314453125,-0.8179779052734375,-0.2119903564453125,-0.1888885498046875
1783338515489117400,0.623117431640625,-0.8258514404296875,-0.2644805908203125,-0.296844482421875
1783338515499090400,0.63309033203125,-0.833587646484375,-0.28924560546875,-0.390960693359375
1783338515509063200,0.643063232421875,-0.8411712646484375,-0.2910919189453125,-0.435699462890625
1783338515519036400,0.653036376953125,-0.84930419921875,-0.283203125,-0.4448089599609375
1783338515529009400,0.663009521484375,-0.8388824462890625,-0.2489776611328125,-0.420684814453125
1783338515538982400,0.672982421875,-0.83099365234375,-0.197784423828125,-0.34869384765625
1783338515548955400,0.682955322265625,-0.8147735595703125,-0.1473236083984375,-0.2777557373046875
1783338515558928100,0.69292822265625,-0.7947540283203125,-0.10455322265625,-0.260040283203125
1783338515568901400,0.7029013671875,-0.7896881103515625,-0.0934906005859375,-0.2711181640625
1783338515578874400,0.712874267578125,-0.77923583984375,-0.1128692626953125,-0.29925537109375
1783338515588847400,0.722847412109375,-0.7610321044921875,-0.1127166748046875,-0.3182525634765625
1783338515598820400,0.7328203125,-0.75018310546875,-0.0408782958984375,-0.27777099609375
1783338515608793300,0.74279345703125,-0.7528228759765625,0.0611724853515625,-0.1893310546875
1783338515618766300,0.752766357421875,-0.7603759765625,0.1234283447265625,-0.11871337890625
1783338515628739300,0.7627392578125,-0.7641448974609375,0.1265106201171875,-0.1367034912109375
1783338515638712300,0.77271240234375,-0.7302093505859375,0.1008758544921875,-0.2571563720703125
1783338515648685300,0.782685302734375,-0.6411895751953125,0.0798492431640625,-0.3347320556640625
1783338515658658300,0.792658203125,-0.588653564453125,0.088775634765625,-0.3347320556640625
1783338515668631300,0.80263134765625,-0.557952880859375,0.134429931640625,-0.337646484375
1783338515678604300,0.812604248046875,-0.4942169189453125,0.1843109130859375,-0.32623291015625
1783338515688577500,0.82257763671875,-0.4098968505859375,0.24615478515625,-0.3066253662109375
1783338515698550300,0.83255029296875,-0.35552978515625,0.3140716552734375,-0.317535400390625
1783338515708523300,0.842523193359375,-0.3641815185546875,0.3963775634765625,-0.3990020751953125
1783338515718496300,0.852496337890625,-0.3942718505859375,0.4456634521484375,-0.5423126220703125
1783338515728469200,0.86246923828125,-0.4046783447265625,0.473724365234375,-0.6781005859375
1783338515738442500,0.8724423828125,-0.379608154296875,0.498260498046875,-0.7492828369140625
1783338515748415200,0.882415283203125,-0.3560333251953125,0.5392303466796875,-0.7964935302734375
1783338515758388200,0.89238818359375,-0.3339385986328125,0.5798797607421875,-0.82696533203125
1783338515768361200,0.902361328125,-0.3375701904296875,0.6028594970703125,-0.888763427734375
1783338515778334500,0.91233447265625,-0.328399658203125,0.587860107421875,-1.034149169921875
1783338515788307500,0.922307373046875,-0.2684326171875,0.509735107421875,-1.181182861328125
1783338515798280200,0.9322802734375,-0.1771240234375,0.470367431640625,-1.295623779296875
1783338515808253200,0.942253173828125,-0.1349334716796875,0.4876556396484375,-1.343597412109375
1783338515818226400,0.952226318359375,-0.1532745361328125,0.5230255126953125,-1.309783935546875
1783338515828199400,0.962199462890625,-0.1917877197265625,0.606781005859375,-1.24530029296875
1783338515838172400,0.97217236328125,-0.2277069091796875,0.6605377197265625,-1.1943359375
1783338515848145200,0.982145263671875,-0.2285308837890625,0.65570068359375,-1.2028961181640625
1783338515858119200,0.992119140625,-0.182830810546875,0.596282958984375,-1.3464508056640625
1783338515868092400,1.002092529296875,-0.102142333984375,0.484588623046875,-1.5463104248046875
1783338515878065400,1.0120654296875,-0.00250244140625,0.4078826904296875,-1.6295928955078125
1783338515888038400,1.022038330078125,0.1066131591796875,0.36968994140625,-1.612060546875
1783338515898011400,1.032011474609375,0.2037811279296875,0.3592529296875,-1.5696868896484375
1783338515907984400,1.041984375,0.2786712646484375,0.373504638671875,-1.546722412109375
1783338515917957400,1.051957275390625,0.344970703125,0.3918914794921875,-1.544830322265625
1783338515927930400,1.061930419921875,0.3768463134765625,0.3631134033203125,-1.5497894287109375
1783338515937903400,1.0719033203125,0.3670196533203125,0.347015380859375,-1.590423583984375
1783338515947876000,1.0818759765625,0.3347015380859375,0.3607025146484375,-1.6469268798828125
1783338515957849300,1.091849365234375,0.2884521484375,0.3520965576171875,-1.7065277099609375
1783338515967822300,1.101822265625,0.2649993896484375,0.324859619140625,-1.7226104736328125
1783338515977795300,1.11179541015625,0.3329010009765625,0.3140869140625,-1.6867828369140625
1783338515987768300,1.121768310546875,0.4205169677734375,0.3072052001953125,-1.571502685546875
1783338515997741300,1.1317412109375,0.4780426025390625,0.3130645751953125,-1.4019012451171875
1783338516007714300,1.14171435546875,0.4772796630859375,0.3131256103515625,-1.240753173828125
1783338516017687300,1.151687255859375,0.5681915283203125,0.3440093994140625,-1.0231170654296875
1783338516027660300,1.161660400390625,0.9491119384765625,0.4868927001953125,-0.6225128173828125
1783338516037633500,1.171633544921875,0.984832763671875,0.602264404296875,-0.324462890625
1783338516047606300,1.181606201171875,0.68878173828125,0.70465087890625,-0.2086029052734375
1783338516057579300,1.191579345703125,0.4522247314453125,0.7874908447265625,-0.24298095703125
1783338516067552300,1.20155224609375,0.3406982421875,0.82379150390625,-0.3851318359375
1783338516077525500,1.211525390625,0.345611572265625,0.843353271484375,-0.5254974365234375
1783338516087498500,1.22149853515625,0.356353759765625,0.838134765625,-0.6074066162109375
1783338516097471200,1.23147119140625,0.311614990234375,0.7926025390625,-0.6614837646484375
1783338516107444200,1.2414443359375,0.2515411376953125,0.7470550537109375,-0.697418212890625
1783338516117417200,1.251417236328125,0.2093048095703125,0.7139434814453125,-0.74676513671875
1783338516127390500,1.261390380859375,0.205322265625,0.6837005615234375,-0.780426025390625
1783338516137363500,1.271363525390625,0.1385345458984375,0.6963653564453125,-0.76507568359375
1783338516147336200,1.281336181640625,0.0339813232421875,0.7210235595703125,-0.727264404296875
1783338516157309200,1.29130908203125,-0.0931549072265625,0.757080078125,-0.694732666015625
1783338516167283200,1.301283203125,-0.1770172119140625,0.75152587890625,-0.7359619140625
1783338516177256400,1.31125634765625,-0.2399444580078125,0.7913818359375,-0.771270751953125
1783338516187229400,1.3212294921875,-0.2362823486328125,0.922088623046875,-0.799468994140625
1783338516197202400,1.331202392578125,-0.1888275146484375,0.9913482666015625,-0.7686309814453125
1783338516207175200,1.341175048828125,-0.0736236572265625,0.9481353759765625,-0.7261199951171875
1783338516217148400,1.3511484375,0.0908966064453125,0.864593505859375,-0.740509033203125
1783338516227121400,1.361121337890625,0.1492767333984375,0.80596923828125,-0.7425537109375
1783338516237094400,1.371094482421875,0.1577606201171875,0.743499755859375,-0.73260498046875
1783338516247067400,1.3810673828125,0.1252899169921875,0.7043609619140625,-0.7149810791015625
1783338516257040400,1.391040283203125,0.093170166015625,0.7169342041015625,-0.7158050537109375
1783338516267013400,1.401013427734375,0.0889892578125,0.7252349853515625,-0.755401611328125
1783338516276986400,1.410986328125,0.0975341796875,0.709625244140625,-0.8036346435546875
1783338516286959400,1.42095947265625,0.1420440673828125,0.7320709228515625,-0.8907318115234375
1783338516296932000,1.43093212890625,0.208526611328125,0.7684478759765625,-1.0049285888671875
1783338516306905300,1.4409052734375,0.2273406982421875,0.73333740234375,-1.0744781494140625
1783338516316878800,1.45087890625,0.274383544921875,0.6728057861328125,-1.166839599609375
1783338516326851800,1.460851806640625,0.2989959716796875,0.6058349609375,-1.203887939453125
1783338516336824800,1.470824951171875,0.2465362548828125,0.558258056640625,-1.1483306884765625
1783338516346797800,1.4807978515625,0.10455322265625,0.5421905517578125,-1.0238189697265625
1783338516356770800,1.490770751953125,0.11517333984375,0.4698944091796875,-1.0411529541015625
1783338516366743800,1.500743896484375,0.096832275390625,0.3553924560546875,-1.0757598876953125
1783338516376716800,1.510716796875,-0.098419189453125,0.3155517578125,-0.9238739013671875
1783338516386689800,1.520689697265625,-0.2028350830078125,0.350921630859375,-0.676055908203125
1783338516396663000,1.5306630859375,-0.2079620361328125,0.3370208740234375,-0.5385284423828125
1783338516406635800,1.5406357421875,-0.1844329833984375,0.3095550537109375,-0.4516448974609375
1783338516416609800,1.55060986328125,-0.1049346923828125,0.2683563232421875,-0.4154510498046875
1783338516426582800,1.560582763671875,0.1398162841796875,0.280364990234375,-0.3546295166015625
1783338516436555800,1.5705556640625,0.3603057861328125,0.3343048095703125,-0.3297271728515625
1783338516446529000,1.580529052734375,0.4708099365234375,0.368896484375,-0.35943603515625
1783338516456501800,1.590501708984375,0.444915771484375,0.3867950439453125,-0.3870697021484375
1783338516466474800,1.600474853515625,0.2294158935546875,0.400146484375,-0.4242401123046875
1783338516476447700,1.61044775390625,0.029052734375,0.422882080078125,-0.483856201171875
1783338516486421000,1.6204208984375,-0.1077423095703125,0.481109619140625,-0.5057830810546875
1783338516496394000,1.63039404296875,-0.15087890625,0.52874755859375,-0.501708984375
1783338516506366700,1.64036669921875,-0.0893707275390625,0.568603515625,-0.531463623046875
1783338516516339700,1.650339599609375,-0.0139617919921875,0.582977294921875,-0.5507354736328125
1783338516526312700,1.660312744140625,0.0526885986328125,0.5391693115234375,-0.4906768798828125
1783338516536286000,1.670285888671875,0.1411285400390625,0.5352935791015625,-0.4493408203125
1783338516546259000,1.680259033203125,0.1890716552734375,0.6196746826171875,-0.4726409912109375
1783338516556231700,1.690231689453125,0.255157470703125,0.6272735595703125,-0.42767333984375
1783338516566204700,1.70020458984375,0.3197174072265625,0.5340118408203125,-0.39617919921875
1783338516576178000,1.710177978515625,0.269073486328125,0.4189605712890625,-0.502899169921875
1783338516586151000,1.72015087890625,0.2237548828125,0.345306396484375,-0.6992034912109375
1783338516596124000,1.7301240234375,0.1849212646484375,0.212127685546875,-0.6796722412109375
1783338516606096600,1.7400966796875,0.1060028076171875,0.3195648193359375,-0.755859375
1783338516616070000,1.75006982421875,0.0662078857421875,0.4855499267578125,-0.78271484375
1783338516626044000,1.7600439453125,-0.0293731689453125,0.6652069091796875,-0.75823974609375
1783338516636017000,1.770016845703125,-0.089630126953125,0.802215576171875,-0.7280120849609375
1783338516645990000,1.779989990234375,-0.1069793701171875,0.925201416015625,-0.7042083740234375
1783338516655963000,1.789962890625,-0.0438232421875,1.0328369140625,-0.7030487060546875
1783338516665936000,1.799935791015625,-0.002655029296875,1.079376220703125,-0.7331390380859375
1783338516675908900,1.809908935546875,-0.0048980712890625,1.12469482421875,-0.7963104248046875
1783338516685881900,1.8198818359375,0.0565948486328125,1.1731414794921875,-0.85333251953125
1783338516695854800,1.829854736328125,0.088592529296875,1.1683807373046875,-0.8681488037109375
1783338516705827800,1.839827880859375,0.1037139892578125,1.20184326171875,-0.8416595458984375
1783338516715800800,1.84980078125,0.1345672607421875,1.20428466796875,-0.8604888916015625
1783338516725773800,1.85977392578125,0.1731414794921875,1.148651123046875,-0.8968048095703125
1783338516735746800,1.869746826171875,0.189422607421875,1.0984649658203125,-0.894012451171875
1783338516745719800,1.8797197265625,0.12567138671875,1.0488433837890625,-0.8317718505859375
1783338516755692800,1.88969287109375,0.076171875,1.01629638671875,-0.7245635986328125
1783338516765665800,1.899665771484375,0.0836944580078125,0.991424560546875,-0.62884521484375
1783338516775638800,1.909638671875,0.100830078125,0.9737701416015625,-0.5480499267578125
1783338516785611800,1.91961181640625,0.1022491455078125,0.97003173828125,-0.4828033447265625
1783338516795585000,1.9295849609375,0.08837890625,0.9655914306640625,-0.4483184814453125
1783338516805557800,1.939557861328125,0.0748748779296875,0.94598388671875,-0.4442138671875
1783338516815530800,1.94953076171875,0.0700836181640625,0.899139404296875,-0.4527587890625
1783338516825504800,1.9595048828125,0.0572662353515625,0.8413543701171875,-0.4491729736328125
1783338516835477800,1.969477783203125,0.052276611328125,0.8115997314453125,-0.417144775390625
1783338516845450800,1.97945068359375,0.0594940185546875,0.7946014404296875,-0.381805419921875
1783338516855424000,1.989424072265625,0.0697021484375,0.7736968994140625,-0.3409881591796875
1783338516865396700,1.999396728515625,0.0764007568359375,0.7686309814453125,-0.3133392333984375
1783338516875369700,2.00936962890625,0.0585174560546875,0.777618408203125,-0.3095703125
1783338516885342700,2.0193427734375,0.038726806640625,0.7747344970703125,-0.301910400390625
1783338516895316000,2.02931591796875,0.0229339599609375,0.7701263427734375,-0.2697296142578125
1783338516905289000,2.0392890625,0.0113983154296875,0.7616424560546875,-0.2183990478515625
1783338516915261700,2.04926171875,-0.0326995849609375,0.6767730712890625,-0.1939697265625
1783338516925234700,2.059234619140625,-0.0427703857421875,0.5966796875,-0.16436767578125
1783338516935208000,2.0692080078125,-0.02215576171875,0.5628662109375,-0.1187286376953125
1783338516945181000,2.079180908203125,-0.00146484375,0.52703857421875,-0.075927734375
1783338516955154000,2.08915380859375,0.009246826171875,0.506072998046875,-0.037750244140625
1783338516965126700,2.099126708984375,0.0242462158203125,0.4816741943359375,-0.019927978515625
1783338516975100000,2.109099853515625,0.016876220703125,0.4522857666015625,-0.014251708984375
1783338516985073000,2.119072998046875,-0.004486083984375,0.3984832763671875,-0.0254974365234375
1783338516995046000,2.1290458984375,-0.087860107421875,0.344635009765625,-0.019683837890625
1783338517005019000,2.139018798828125,-0.117401123046875,0.3121185302734375,-0.041351318359375
1783338517014993000,2.148992919921875,-0.068450927734375,0.263092041015625,-0.0818939208984375
1783338517024966000,2.1589658203125,-0.0792083740234375,0.233673095703125,-0.09649658203125
1783338517034939000,2.16893896484375,-0.1020050048828125,0.2282867431640625,-0.095916748046875
1783338517044911900,2.178911865234375,-0.1168975830078125,0.3093719482421875,-0.091094970703125
1783338517054884900,2.188884765625,-0.2588653564453125,1.2216949462890625,0.17950439453125
1783338517064857600,2.198857666015625,-0.1754608154296875,3.6043853759765625,1.070556640625
1783338517074830800,2.208830810546875,-0.23846435546875,3.9615325927734375,1.6078338623046875
1783338517084803800,2.218803955078125,-0.352142333984375,3.319793701171875,1.3028106689453125
1783338517094776800,2.22877685546875,-0.2400665283203125,2.8437347412109375,0.9291534423828125
1783338517104749800,2.238749755859375,-0.1546783447265625,1.8760833740234375,0.5596466064453125
1783338517114722800,2.248722900390625,-0.0781402587890625,1.234283447265625,0.3667144775390625
1783338517124695800,2.25869580078125,0.0107879638671875,0.8285064697265625,0.2441253662109375
1783338517134668800,2.268668701171875,0.07171630859375,0.5652008056640625,0.17242431640625
1783338517144641800,2.278641845703125,0.09820556640625,0.4419708251953125,0.15362548828125
1783338517154615000,2.288614990234375,0.133514404296875,0.46197509765625,0.1970367431640625
1783338517164587800,2.298587890625,0.1692352294921875,0.6079254150390625,0.297027587890625
1783338517174561800,2.308561767578125,0.175079345703125,0.757080078125,0.3682403564453125
1783338517184534800,2.31853466796875,0.1461029052734375,0.841827392578125,0.341461181640625
1783338517194507800,2.3285078125,0.0977325439453125,0.8853302001953125,0.2765045166015625
1783338517204480800,2.338480712890625,0.0465240478515625,0.9544830322265625,0.2811279296875
1783338517214454000,2.3484541015625,-0.0091400146484375,1.046478271484375,0.3482818603515625
1783338517224426800,2.3584267578125,-0.0423736572265625,1.09356689453125,0.390411376953125
1783338517234399700,2.368399658203125,-0.0593719482421875,1.0703887939453125,0.3429412841796875
1783338517244372700,2.378372802734375,-0.0831756591796875,1.0164947509765625,0.232452392578125
1783338517254346000,2.388345947265625,-0.128143310546875,0.986419677734375,0.158905029296875
1783338517264319000,2.398319091796875,-0.188720703125,0.985107421875,0.153564453125
1783338517274291700,2.408291748046875,-0.2323150634765625,0.9680023193359375,0.1638336181640625
1783338517284264700,2.4182646484375,-0.2480926513671875,0.9351959228515625,0.15692138671875
1783338517294238000,2.428238037109375,-0.257965087890625,0.9072113037109375,0.163970947265625
1783338517304211000,2.4382109375,-0.270660400390625,0.892578125,0.2181854248046875
1783338517314184000,2.448183837890625,-0.2577056884765625,0.8854827880859375,0.2507781982421875
1783338517324156700,2.45815673828125,-0.2207183837890625,0.8789825439453125,0.2273101806640625
1783338517334130700,2.468130615234375,-0.20123291015625,0.8842926025390625,0.255279541015625
1783338517344104000,2.47810400390625,-0.1921844482421875,0.9315185546875,0.3524322509765625
1783338517354077000,2.488076904296875,-0.1435699462890625,0.96002197265625,0.4131317138671875
1783338517364050000,2.4980498046875,-0.0983428955078125,0.9622344970703125,0.4437713623046875
1783338517374022700,2.508022705078125,-0.072265625,0.945343017578125,0.467803955078125
1783338517383995600,2.51799560546875,-0.05474853515625,0.92645263671875,0.494903564453125
1783338517393969000,2.527968994140625,-0.0402069091796875,0.9150543212890625,0.5116119384765625
1783338517403942000,2.53794189453125,-0.0340423583984375,0.9045562744140625,0.5126800537109375
1783338517413915000,2.547914794921875,-0.033203125,0.8948516845703125,0.5016632080078125
1783338517423887600,2.5578876953125,-0.0361480712890625,0.8909759521484375,0.47711181640625
1783338517433860900,2.56786083984375,-0.0404205322265625,0.894195556640625,0.43768310546875
1783338517443833900,2.577833740234375,-0.0536651611328125,0.8991546630859375,0.397125244140625
1783338517453806800,2.587806884765625,-0.073516845703125,0.9066314697265625,0.3713531494140625
1783338517463779800,2.59777978515625,-0.093597412109375,0.9129180908203125,0.3583984375
1783338517473752800,2.6077529296875,-0.11175537109375,0.9216461181640625,0.349151611328125
1783338517483726800,2.617726806640625,-0.12432861328125,0.9263458251953125,0.342742919921875
1783338517493699800,2.627699951171875,-0.1326751708984375,0.9299468994140625,0.335693359375
1783338517503672800,2.6376728515625,-0.136566162109375,0.9328460693359375,0.329620361328125
1783338517513645800,2.647645751953125,-0.1386260986328125,0.9325714111328125,0.3211212158203125
1783338517523618800,2.657618896484375,-0.1352996826171875,0.935211181640625,0.31463623046875
1783338517533591800,2.667591796875,-0.1331024169921875,0.9326934814453125,0.3119354248046875
1783338517543564800,2.677564697265625,-0.1318206787109375,0.9290008544921875,0.3103485107421875
1783338517553537800,2.687537841796875,-0.129150390625,0.9229888916015625,0.3151397705078125
1783338517563510800,2.6975107421875,-0.127471923828125,0.9178619384765625,0.3236083984375
1783338517573484000,2.707484130859375,-0.1241455078125,0.9116973876953125,0.3314971923828125
1783338517583456800,2.717456787109375,-0.120849609375,0.909515380859375,0.3369293212890625
1783338517593429800,2.7274296875,-0.114593505859375,0.9155426025390625,0.3373870849609375
1783338517603402800,2.73740283203125,-0.1051788330078125,0.9264678955078125,0.337921142578125
1783338517613376000,2.7473759765625,-0.0955352783203125,0.939697265625,0.3307952880859375
1783338517623350000,2.75735009765625,-0.0826873779296875,0.9517669677734375,0.3238372802734375
1783338517633322800,2.76732275390625,-0.0693359375,0.9562225341796875,0.31298828125
1783338517643295700,2.777295654296875,-0.057159423828125,0.958160400390625,0.3003082275390625
1783338517653268700,2.787268798828125,-0.0437164306640625,0.9568328857421875,0.2869110107421875
1783338517663242000,2.797241943359375,-0.0352630615234375,0.9566650390625,0.2739105224609375
1783338517673215000,2.807215087890625,-0.0291900634765625,0.9558563232421875,0.2613983154296875
1783338517683187700,2.817187744140625,-0.027862548828125,0.9529876708984375,0.249298095703125
1783338517693160700,2.82716064453125,-0.0303802490234375,0.9564361572265625,0.239227294921875
1783338517703133700,2.8371337890625,-0.0342559814453125,0.95751953125,0.2336883544921875
1783338517713107000,2.84710693359375,-0.041900634765625,0.9588470458984375,0.23309326171875
1783338517723080000,2.857079833984375,-0.0502777099609375,0.9572296142578125,0.2369842529296875
1783338517733052700,2.867052734375,-0.061126708984375,0.9530181884765625,0.245941162109375
1783338517743025700,2.877025634765625,-0.06884765625,0.9442596435546875,0.260162353515625
1783338517752999000,2.8869990234375,-0.077850341796875,0.93896484375,0.2752227783203125
1783338517762972000,2.896971923828125,-0.085418701171875,0.9377899169921875,0.2915802001953125
1783338517772946000,2.90694580078125,-0.0901031494140625,0.9391632080078125,0.308685302734375
1783338517782919000,2.9169189453125,-0.0924224853515625,0.9370269775390625,0.321197509765625
1783338517792891600,2.9268916015625,-0.0977020263671875,0.9353790283203125,0.3354339599609375
1783338517802865000,2.936864990234375,-0.1025238037109375,0.93157958984375,0.348602294921875
1783338517812838000,2.946837890625,-0.1088104248046875,0.926513671875,0.3619384765625
1783338517822811000,2.956810791015625,-0.11419677734375,0.920379638671875,0.371978759765625
1783338517832784000,2.966783935546875,-0.1168365478515625,0.9128570556640625,0.3810882568359375
1783338517842756900,2.9767568359375,-0.1175537109375,0.911224365234375,0.390777587890625
1783338517852729900,2.986729736328125,-0.117462158203125,0.910675048828125,0.400482177734375
1783338517862702800,2.996702880859375,-0.115814208984375,0.9095611572265625,0.4080047607421875
1783338517872675800,3.00667578125,-0.1124725341796875,0.9062957763671875,0.415313720703125
1783338517882648800,3.01664892578125,-0.109466552734375,0.903228759765625,0.4189453125
1783338517892621800,3.026621826171875,-0.1041107177734375,0.9010772705078125,0.4227142333984375
1783338517902595800,3.036595947265625,-0.09954833984375,0.898834228515625,0.416473388671875
1783338517912568800,3.04656884765625,-0.09796142578125,0.8972320556640625,0.4058685302734375
1783338517922541800,3.056541748046875,-0.101959228515625,0.8971099853515625,0.394866943359375
1783338517932514800,3.066514892578125,-0.1058349609375,0.904998779296875,0.3797149658203125
1783338517942487800,3.07648779296875,-0.1096343994140625,0.914093017578125,0.3648681640625
1783338517952460800,3.086460693359375,-0.1127166748046875,0.9227752685546875,0.35516357421875
1783338517962433800,3.096433837890625,-0.1157379150390625,0.9251251220703125,0.3491668701171875
1783338517972406800,3.10640673828125,-0.1187591552734375,0.9246368408203125,0.341522216796875
1783338517982380000,3.116380126953125,-0.11761474609375,0.9249267578125,0.3338470458984375
1783338517992352800,3.126352783203125,-0.1210784912109375,0.922271728515625,0.3289947509765625
1783338518002325800,3.13632568359375,-0.1243438720703125,0.92266845703125,0.329132080078125
1783338518012298800,3.146298828125,-0.1251220703125,0.92144775390625,0.3299713134765625
1783338518022271700,3.156271728515625,-0.1226959228515625,0.9207000732421875,0.33111572265625
1783338518032245800,3.166245849609375,-0.119720458984375,0.9225616455078125,0.332611083984375
1783338518042219000,3.176218994140625,-0.11590576171875,0.9248199462890625,0.336944580078125
1783338518052191700,3.186191650390625,-0.11083984375,0.927032470703125,0.34039306640625
1783338518062164700,3.196164794921875,-0.1046905517578125,0.930633544921875,0.3416595458984375
1783338518072137700,3.2061376953125,-0.097869873046875,0.9343109130859375,0.3457794189453125
1783338518082111000,3.216111083984375,-0.09417724609375,0.9400482177734375,0.3489227294921875
1783338518092084000,3.226083984375,-0.08843994140625,0.9405975341796875,0.3473052978515625
1783338518102056700,3.236056640625,-0.0843963623046875,0.9385986328125,0.3438873291015625
1783338518112029700,3.24602978515625,-0.0820465087890625,0.935516357421875,0.345306396484375
1783338518122003000,3.2560029296875,-0.0804290771484375,0.9277191162109375,0.3426971435546875
1783338518131976000,3.265975830078125,-0.0824737548828125,0.920074462890625,0.340179443359375
1783338518141949000,3.275948974609375,-0.0850830078125,0.9155426025390625,0.34375
1783338518151921700,3.285921630859375,-0.0883941650390625,0.912811279296875,0.343963623046875
1783338518161895700,3.295895751953125,-0.0934906005859375,0.9137115478515625,0.343475341796875
1783338518171869000,3.305868896484375,-0.09918212890625,0.9160308837890625,0.34222412109375
1783338518181842000,3.315842041015625,-0.103851318359375,0.9204254150390625,0.3383331298828125
1783338518191815000,3.32581494140625,-0.1064300537109375,0.9276885986328125,0.3333587646484375
1783338518201788000,3.335787841796875,-0.1078643798828125,0.932098388671875,0.3288421630859375
1783338518211760600,3.3457607421875,-0.1089935302734375,0.934051513671875,0.3238525390625
1783338518221734000,3.35573388671875,-0.1113433837890625,0.93487548828125,0.320587158203125
1783338518231707000,3.365706787109375,-0.1113433837890625,0.935943603515625,0.3192291259765625
1783338518241680000,3.375679931640625,-0.1060333251953125,0.9336700439453125,0.3208465576171875
1783338518251652600,3.385652587890625,-0.10308837890625,0.93280029296875,0.3239898681640625
1783338518261625900,3.3956259765625,-0.098236083984375,0.93328857421875,0.3289337158203125
1783338518271598800,3.405598876953125,-0.093719482421875,0.93402099609375,0.333831787109375
1783338518281571800,3.41557177734375,-0.0917510986328125,0.9322357177734375,0.33734130859375
1783338518291545900,3.4255458984375,-0.0892333984375,0.9304046630859375,0.3419189453125
1783338518301518800,3.435518798828125,-0.0892181396484375,0.931243896484375,0.3460235595703125
1783338518311491800,3.445491943359375,-0.089447021484375,0.9284210205078125,0.3502044677734375
1783338518321464800,3.45546484375,-0.0922698974609375,0.928985595703125,0.354461669921875
1783338518331437800,3.465437744140625,-0.0954437255859375,0.926025390625,0.3570098876953125
1783338518341410800,3.475410888671875,-0.098876953125,0.9247894287109375,0.35546875
1783338518351383800,3.4853837890625,-0.1036376953125,0.9237518310546875,0.355499267578125
1783338518361356800,3.495356689453125,-0.108062744140625,0.9225921630859375,0.354034423828125
1783338518371329800,3.505329833984375,-0.113128662109375,0.9232177734375,0.35345458984375
1783338518381302800,3.515302734375,-0.1192626953125,0.9224090576171875,0.354339599609375
1783338518391275800,3.52527587890625,-0.1249847412109375,0.9208831787109375,0.355804443359375
1783338518401249000,3.5352490234375,-0.1282806396484375,0.91680908203125,0.355682373046875
1783338518411223000,3.54522314453125,-0.130615234375,0.914306640625,0.3560638427734375
1783338518421195800,3.55519580078125,-0.13262939453125,0.9105377197265625,0.35784912109375
1783338518431168800,3.565168701171875,-0.1307525634765625,0.9111175537109375,0.3592376708984375
1783338518441141800,3.575141845703125,-0.128204345703125,0.9130706787109375,0.359588623046875
1783338518451115000,3.585114990234375,-0.1236419677734375,0.916748046875,0.359344482421875
1783338518461088000,3.595087890625,-0.11859130859375,0.9179229736328125,0.3600006103515625
1783338518471060700,3.605060791015625,-0.116241455078125,0.9194488525390625,0.3603057861328125
1783338518481033700,3.61503369140625,-0.11199951171875,0.9219512939453125,0.3598785400390625
1783338518491007000,3.625007080078125,-0.1087799072265625,0.9239959716796875,0.356658935546875
1783338518500980000,3.63497998046875,-0.1064605712890625,0.9253692626953125,0.353363037109375
1783338518510953000,3.644952880859375,-0.1056976318359375,0.92578125,0.3516998291015625
1783338518520925700,3.65492578125,-0.1045379638671875,0.92510986328125,0.3484954833984375
1783338518530898700,3.664898681640625,-0.1026763916015625,0.9268798828125,0.3445892333984375
1783338518540872700,3.674872802734375,-0.10162353515625,0.9306793212890625,0.3432159423828125
1783338518550846000,3.684845947265625,-0.1002960205078125,0.93157958984375,0.341278076171875
1783338518560819000,3.69481884765625,-0.102264404296875,0.9340057373046875,0.341064453125
1783338518570791700,3.704791748046875,-0.1047210693359375,0.9323272705078125,0.3424072265625
1783338518580764700,3.7147646484375,-0.106597900390625,0.930023193359375,0.341156005859375
1783338518590738000,3.724738037109375,-0.1083221435546875,0.928314208984375,0.3408050537109375
1783338518600711000,3.7347109375,-0.1096954345703125,0.9299774169921875,0.3420562744140625
1783338518610684000,3.744683837890625,-0.108489990234375,0.928863525390625,0.34326171875
1783338518620656600,3.75465673828125,-0.1107635498046875,0.9264984130859375,0.343414306640625
1783338518630630000,3.7646298828125,-0.1133575439453125,0.921844482421875,0.3448944091796875
1783338518640603000,3.774602783203125,-0.11651611328125,0.9190216064453125,0.3446197509765625
1783338518650576000,3.784575927734375,-0.12139892578125,0.9155426025390625,0.346923828125
1783338518660550000,3.7945498046875,-0.12152099609375,0.91650390625,0.34832763671875
1783338518670523000,3.80452294921875,-0.1214141845703125,0.9158172607421875,0.3489990234375
1783338518680495600,3.81449560546875,-0.122589111328125,0.9144744873046875,0.3501739501953125
1783338518690468900,3.82446875,-0.123779296875,0.914794921875,0.353729248046875
1783338518700441900,3.83444189453125,-0.12579345703125,0.91510009765625,0.3567657470703125
1783338518710414800,3.844414794921875,-0.124847412109375,0.9146270751953125,0.3524932861328125
1783338518720387800,3.854387939453125,-0.1302337646484375,0.906158447265625,0.3455352783203125
1783338518730360800,3.86436083984375,-0.133514404296875,0.9092559814453125,0.3565521240234375
1783338518740333800,3.874333740234375,-0.1311492919921875,0.9145660400390625,0.3590545654296875
1783338518750306800,3.884306884765625,-0.1291351318359375,0.9186859130859375,0.355865478515625
1783338518760279800,3.89427978515625,-0.1286163330078125,0.925201416015625,0.354461669921875
1783338518770253000,3.904253173828125,-0.1251068115234375,0.9296417236328125,0.3534698486328125
1783338518780227000,3.91422705078125,-0.120269775390625,0.92828369140625,0.3504791259765625
1783338518790199800,3.92419970703125,-0.11309814453125,0.930145263671875,0.3470916748046875
1783338518800172800,3.9341728515625,-0.1066436767578125,0.9295501708984375,0.3458709716796875
1783338518810145800,3.944145751953125,-0.0989990234375,0.9319000244140625,0.34844970703125
1783338518820118800,3.954118896484375,-0.0919952392578125,0.932098388671875,0.3431243896484375
1783338518830091800,3.964091796875,-0.086944580078125,0.9354400634765625,0.3394012451171875
1783338518840064800,3.974064697265625,-0.0829315185546875,0.936309814453125,0.33612060546875
1783338518850037800,3.984037841796875,-0.0825347900390625,0.9364166259765625,0.33380126953125
1783338518860010800,3.9940107421875,-0.08294677734375,0.9362640380859375,0.3336181640625
1783338518869984000,4.00398388671875,-0.0879364013671875,0.935302734375,0.33203125
1783338518879956700,4.013956787109375,-0.0943603515625,0.93243408203125,0.331756591796875
1783338518889930800,4.0239306640625,-0.1016998291015625,0.932647705078125,0.3308258056640625
1783338518899903700,4.03390380859375,-0.10986328125,0.92724609375,0.331787109375
1783338518909876700,4.043876708984375,-0.116973876953125,0.9225311279296875,0.3317413330078125
1783338518919850000,4.05385009765625,-0.123046875,0.92022705078125,0.332916259765625
1783338518929823000,4.063822998046875,-0.12835693359375,0.9201202392578125,0.3335418701171875
1783338518939795700,4.073795654296875,-0.12982177734375,0.921630859375,0.334808349609375
1783338518949768700,4.083768798828125,-0.132904052734375,0.9227142333984375,0.335845947265625
1783338518959742000,4.093741943359375,-0.131439208984375,0.9237060546875,0.3366241455078125
1783338518969715000,4.10371484375,-0.12884521484375,0.9233245849609375,0.34210205078125
1783338518979688000,4.11368798828125,-0.1280059814453125,0.9243621826171875,0.347869873046875
1783338518989660700,4.12366064453125,-0.12359619140625,0.924407958984375,0.3525238037109375
1783338518999633700,4.133633544921875,-0.1200408935546875,0.9220428466796875,0.3577423095703125
1783338519009607700,4.143607666015625,-0.114288330078125,0.921051025390625,0.361541748046875
1783338519019581000,4.153580810546875,-0.1103973388671875,0.9198760986328125,0.3656768798828125
1783338519029554000,4.163553955078125,-0.105987548828125,0.9205780029296875,0.3695526123046875
1783338519039527000,4.17352685546875,-0.1053924560546875,0.919342041015625,0.3698577880859375
1783338519049499600,4.183499755859375,-0.1051025390625,0.9197235107421875,0.3701324462890625
1783338519059473000,4.193472900390625,-0.1051788330078125,0.92047119140625,0.37158203125
1783338519069446000,4.20344580078125,-0.1061248779296875,0.91986083984375,0.367706298828125
1783338519079419000,4.2134189453125,-0.10986328125,0.9193115234375,0.366363525390625
1783338519089391900,4.223391845703125,-0.114044189453125,0.9172515869140625,0.36700439453125
1783338519099364900,4.23336474609375,-0.1173858642578125,0.91217041015625,0.3630523681640625
1783338519109337900,4.243337890625,-0.121917724609375,0.913909912109375,0.366943359375
1783338519119310800,4.253310791015625,-0.1245574951171875,0.912353515625,0.364288330078125
1783338519129284900,4.263284912109375,-0.1280670166015625,0.911041259765625,0.3647918701171875
1783338519139257900,4.2732578125,-0.128753662109375,0.9107513427734375,0.36431884765625
1783338519149230600,4.283230712890625,-0.1301116943359375,0.9122161865234375,0.364105224609375
1783338519159203800,4.293203857421875,-0.1321258544921875,0.9150390625,0.363006591796875
1783338519169176800,4.3031767578125,-0.1316375732421875,0.9163818359375,0.3618316650390625
1783338519179149800,4.31314990234375,-0.1307373046875,0.9179229736328125,0.3605804443359375
1783338519189122800,4.323122802734375,-0.13018798828125,0.9188079833984375,0.3601226806640625
1783338519199095800,4.333095703125,-0.1277313232421875,0.9188690185546875,0.3584747314453125
1783338519209068800,4.34306884765625,-0.1230316162109375,0.91943359375,0.3570556640625
1783338519219041800,4.353041748046875,-0.1183013916015625,0.9184722900390625,0.356658935546875
1783338519229014800,4.363014892578125,-0.115509033203125,0.918853759765625,0.356292724609375
1783338519238988800,4.37298876953125,-0.1142425537109375,0.9188995361328125,0.3564605712890625
1783338519248962000,4.382962158203125,-0.1105194091796875,0.9200592041015625,0.35662841796875
1783338519258934800,4.392934814453125,-0.10894775390625,0.9224853515625,0.35614013671875
1783338519268907800,4.40290771484375,-0.1082916259765625,0.9229583740234375,0.3547210693359375
1783338519278880800,4.412880859375,-0.1090240478515625,0.922271728515625,0.3547515869140625
1783338519288853800,4.422853759765625,-0.1094818115234375,0.92083740234375,0.352630615234375
1783338519298827000,4.432826904296875,-0.1118621826171875,0.921661376953125,0.352569580078125
1783338519308799700,4.4427998046875,-0.11175537109375,0.9203643798828125,0.3531951904296875
1783338519318773000,4.45277294921875,-0.1147918701171875,0.919647216796875,0.35205078125
1783338519328746000,4.46274609375,-0.11566162109375,0.9192047119140625,0.351898193359375
1783338519338719200,4.47271923828125,-0.117462158203125,0.917877197265625,0.3517913818359375
1783338519348692200,4.482692138671875,-0.1170654296875,0.9164886474609375,0.3526458740234375
1783338519358666200,4.492666259765625,-0.116729736328125,0.9176788330078125,0.3517913818359375
1783338519368639000,4.502638916015625,-0.1165924072265625,0.917694091796875,0.351898193359375
1783338519378612000,4.512612060546875,-0.117340087890625,0.9190826416015625,0.3521728515625
1783338519388585200,4.522585205078125,-0.115814208984375,0.9207305908203125,0.351593017578125
1783338519398558200,4.53255810546875,-0.116546630859375,0.9223785400390625,0.352935791015625
1783338519408531200,4.54253125,-0.115631103515625,0.923919677734375,0.355712890625
1783338519418504000,4.55250390625,-0.1141204833984375,0.923858642578125,0.3560028076171875
1783338519428477000,4.562476806640625,-0.113525390625,0.922515869140625,0.3545684814453125
1783338519438450200,4.5724501953125,-0.111358642578125,0.9206390380859375,0.3543701171875
1783338519448423200,4.582423095703125,-0.109375,0.923614501953125,0.3532562255859375
1783338519458397200,4.592397216796875,-0.10888671875,0.92364501953125,0.351654052734375
1783338519468370200,4.6023701171875,-0.108734130859375,0.9246826171875,0.3487701416015625
1783338519478343000,4.612343017578125,-0.108245849609375,0.923492431640625,0.3449249267578125
1783338519488316200,4.622316162109375,-0.108245849609375,0.9236297607421875,0.343902587890625
1783338519498289200,4.6322890625,-0.107757568359375,0.9237213134765625,0.3416290283203125
1783338519508262100,4.64226220703125,-0.1054229736328125,0.925201416015625,0.3421173095703125
1783338519518235000,4.65223486328125,-0.1043701171875,0.923675537109375,0.3441314697265625
1783338519528208100,4.6622080078125,-0.1063690185546875,0.924102783203125,0.343963623046875
1783338519538181000,4.67218115234375,-0.10540771484375,0.92279052734375,0.347381591796875
1783338519548154000,4.682154052734375,-0.10693359375,0.922027587890625,0.3495025634765625
1783338519558127000,4.692127197265625,-0.108642578125,0.9207763671875,0.35174560546875
1783338519568100000,4.70210009765625,-0.111419677734375,0.921905517578125,0.3535308837890625
1783338519578073900,4.712073974609375,-0.11395263671875,0.9216766357421875,0.3546142578125
1783338519588047000,4.722047119140625,-0.116424560546875,0.9186553955078125,0.3542022705078125
1783338519598020000,4.73202001953125,-0.117828369140625,0.9181671142578125,0.352325439453125
1783338519607993000,4.7419931640625,-0.1185760498046875,0.917755126953125,0.3518218994140625
1783338519617966000,4.751966064453125,-0.11962890625,0.920135498046875,0.3518524169921875
1783338519627939000,4.76193896484375,-0.11700439453125,0.920745849609375,0.35137939453125
1783338519637912000,4.771912109375,-0.1137542724609375,0.920745849609375,0.3499298095703125
1783338519647885000,4.781885009765625,-0.1121063232421875,0.9203338623046875,0.349273681640625
1783338519657858000,4.791858154296875,-0.108245849609375,0.9216766357421875,0.35009765625
1783338519667831300,4.801831298828125,-0.107818603515625,0.92071533203125,0.34991455078125
1783338519677804000,4.811803955078125,-0.1058502197265625,0.9229278564453125,0.3495025634765625
1783338519687778000,4.821778076171875,-0.1035308837890625,0.9246978759765625,0.3486480712890625
1783338519697751000,4.8317509765625,-0.1045379638671875,0.92510986328125,0.3477020263671875
1783338519707724000,4.84172412109375,-0.1048126220703125,0.926055908203125,0.3469390869140625
1783338519717697000,4.851697021484375,-0.103271484375,0.925079345703125,0.3454132080078125
1783338519727670300,4.861670166015625,-0.1024322509765625,0.9227294921875,0.3472442626953125
1783338519737643000,4.87164306640625,-0.100982666015625,0.924072265625,0.345611572265625
1783338519747616000,4.881615966796875,-0.101470947265625,0.9243011474609375,0.3469696044921875
1783338519757589000,4.891589111328125,-0.1017303466796875,0.9240875244140625,0.348602294921875
1783338519767562200,4.901562255859375,-0.1009521484375,0.92431640625,0.348846435546875
1783338519777535200,4.91153515625,-0.105010986328125,0.9229888916015625,0.3491973876953125
1783338519787508000,4.921508056640625,-0.1071014404296875,0.9222869873046875,0.3509063720703125
1783338519797482000,4.93148193359375,-0.1082305908203125,0.921661376953125,0.3502960205078125
1783338519807455000,4.941455078125,-0.10919189453125,0.92254638671875,0.3497467041015625
1783338519817428200,4.95142822265625,-0.1085357666015625,0.92254638671875,0.3505401611328125
1783338519827401200,4.961401123046875,-0.106903076171875,0.9221954345703125,0.35321044921875
1783338519837374000,4.9713740234375,-0.1071319580078125,0.9228363037109375,0.3513946533203125
1783338519847347000,4.981346923828125,-0.1079254150390625,0.92132568359375,0.3515472412109375
1783338519857320200,4.9913203125,-0.1069488525390625,0.922210693359375,0.3512725830078125
1783338519867293200,5.001293212890625,-0.1064605712890625,0.9213714599609375,0.3505706787109375
1783338519877266200,5.01126611328125,-0.1048126220703125,0.921173095703125,0.349517822265625
1783338519887239000,5.021239013671875,-0.107177734375,0.9199981689453125,0.350738525390625
1783338519897212000,5.0312119140625,-0.1076202392578125,0.921051025390625,0.349822998046875
1783338519907186000,5.04118603515625,-0.1075439453125,0.92083740234375,0.349456787109375
1783338519917159200,5.0511591796875,-0.1076202392578125,0.921356201171875,0.35107421875
1783338519927132200,5.061132080078125,-0.106231689453125,0.9231414794921875,0.3509521484375
1783338519937105200,5.071105224609375,-0.1048126220703125,0.9228057861328125,0.352386474609375
1783338519947078000,5.081077880859375,-0.10394287109375,0.9223175048828125,0.3529815673828125
1783338519957051100,5.091051025390625,-0.102569580078125,0.9205474853515625,0.3543243408203125
1783338519967024000,5.101024169921875,-0.103912353515625,0.92242431640625,0.3559722900390625
1783338519976997000,5.1109970703125,-0.1047515869140625,0.9230194091796875,0.3579864501953125
1783338519986970000,5.12097021484375,-0.1058349609375,0.9215850830078125,0.35882568359375
1783338519996943000,5.130943115234375,-0.1063690185546875,0.9182281494140625,0.360076904296875
1783338520006917000,5.140917236328125,-0.107757568359375,0.91656494140625,0.358306884765625
1783338520016890000,5.15089013671875,-0.109039306640625,0.9162445068359375,0.35626220703125
1783338520026863000,5.160863037109375,-0.1084442138671875,0.91741943359375,0.352935791015625
1783338520036836000,5.170836181640625,-0.107147216796875,0.91949462890625,0.350341796875
1783338520046809000,5.18080908203125,-0.10650634765625,0.9211273193359375,0.3481903076171875
1783338520056782000,5.190781982421875,-0.1046295166015625,0.920745849609375,0.3481597900390625
1783338520066755000,5.200755126953125,-0.1041107177734375,0.9222259521484375,0.348175048828125
1783338520076728000,5.21072802734375,-0.1047515869140625,0.9235076904296875,0.3472900390625
1783338520086701000,5.220701171875,-0.1046600341796875,0.925689697265625,0.3473663330078125
1783338520096674000,5.230674072265625,-0.1043548583984375,0.9277496337890625,0.3482513427734375
1783338520106647000,5.24064697265625,-0.1038970947265625,0.9273681640625,0.34832763671875
1783338520116620000,5.2506201171875,-0.103302001953125,0.9244842529296875,0.3492889404296875
1783338520126594000,5.260593994140625,-0.1030731201171875,0.9236297607421875,0.3503875732421875
1783338520136567000,5.270567138671875,-0.1021728515625,0.9217681884765625,0.3518218994140625
1783338520146540300,5.280540283203125,-0.1017913818359375,0.922119140625,0.35247802734375
1783338520156513000,5.290512939453125,-0.1003265380859375,0.9225616455078125,0.3523712158203125
1783338520166486000,5.300486083984375,-0.1013031005859375,0.9219512939453125,0.3528594970703125
1783338520176459000,5.310458984375,-0.1014251708984375,0.9223175048828125,0.353363037109375
1783338520186432000,5.320431884765625,-0.10162353515625,0.9215087890625,0.3531494140625
1783338520196405200,5.3304052734375,-0.102447509765625,0.92413330078125,0.3536376953125
1783338520206378000,5.3403779296875,-0.103515625,0.9234771728515625,0.353485107421875
1783338520216352000,5.35035205078125,-0.104278564453125,0.92327880859375,0.3526611328125
1783338520226325000,5.360324951171875,-0.1060791015625,0.921142578125,0.351409912109375
1783338520236298000,5.370298095703125,-0.1069183349609375,0.919677734375,0.351226806640625
1783338520246271200,5.380271240234375,-0.108306884765625,0.920196533203125,0.351348876953125
1783338520256244200,5.390244140625,-0.1083984375,0.9200286865234375,0.3519439697265625
1783338520266217000,5.400217041015625,-0.10784912109375,0.91986083984375,0.3526153564453125
1783338520276190000,5.41018994140625,-0.108306884765625,0.92156982421875,0.35107421875
1783338520286163200,5.4201630859375,-0.109039306640625,0.9225616455078125,0.350921630859375
1783338520296136200,5.43013623046875,-0.1089019775390625,0.9226226806640625,0.3513641357421875
1783338520306109200,5.440109130859375,-0.1100311279296875,0.9235076904296875,0.3499603271484375
1783338520316082000,5.45008203125,-0.10699462890625,0.9238433837890625,0.35064697265625
1783338520326055700,5.4600556640625,-0.1046295166015625,0.9239349365234375,0.350067138671875
1783338520336029000,5.47002880859375,-0.1045989990234375,0.923187255859375,0.3495330810546875
1783338520346002000,5.480001953125,-0.104278564453125,0.9238433837890625,0.347991943359375
1783338520355974700,5.489974609375,-0.1035614013671875,0.9243011474609375,0.3475341796875
1783338520365947600,5.49994775390625,-0.1043701171875,0.9244232177734375,0.3463134765625
1783338520375921000,5.5099208984375,-0.1050567626953125,0.924835205078125,0.3469390869140625
1783338520385894000,5.519893798828125,-0.107269287109375,0.923797607421875,0.3466949462890625
1783338520395866600,5.52986669921875,-0.10693359375,0.9222259521484375,0.3474884033203125
1783338520405839600,5.539839599609375,-0.1080474853515625,0.9225006103515625,0.3480682373046875
1783338520415812600,5.5498125,-0.105499267578125,0.9217529296875,0.348724365234375
1783338520425785900,5.559785888671875,-0.1040496826171875,0.9228363037109375,0.350250244140625
1783338520435759900,5.569759765625,-0.103759765625,0.9225616455078125,0.351776123046875
1783338520445732900,5.57973291015625,-0.102569580078125,0.9234771728515625,0.3534698486328125
1783338520455705600,5.58970556640625,-0.103668212890625,0.924041748046875,0.35394287109375
1783338520465678600,5.5996787109375,-0.10455322265625,0.924072265625,0.3534393310546875
1783338520475651800,5.60965185546875,-0.10540771484375,0.921539306640625,0.353240966796875
1783338520485624800,5.619624755859375,-0.1042633056640625,0.9220428466796875,0.3518218994140625
1783338520495597800,5.629597900390625,-0.103179931640625,0.92193603515625,0.3509368896484375
1783338520505570600,5.639570556640625,-0.1037750244140625,0.9217376708984375,0.3492584228515625
1783338520515543800,5.649543701171875,-0.103973388671875,0.92340087890625,0.3505859375
1783338520525516800,5.659516845703125,-0.104644775390625,0.924713134765625,0.34844970703125
1783338520535489800,5.66948974609375,-0.105621337890625,0.9246826171875,0.3463897705078125
1783338520545463800,5.6794638671875,-0.1045989990234375,0.9248199462890625,0.3467864990234375
1783338520555436800,5.689436767578125,-0.103973388671875,0.9256591796875,0.346466064453125
1783338520565409500,5.699409423828125,-0.1021728515625,0.9251556396484375,0.3473052978515625
1783338520575382800,5.7093828125,-0.102020263671875,0.92572021484375,0.3495635986328125
1783338520585355800,5.719355712890625,-0.1046295166015625,0.92578125,0.3484039306640625
1783338520595328800,5.729328857421875,-0.1051483154296875,0.923248291015625,0.3490753173828125
1783338520605301800,5.7393017578125,-0.10589599609375,0.9212493896484375,0.3521575927734375
1783338520615274800,5.749274658203125,-0.105621337890625,0.9204864501953125,0.3508758544921875
1783338520625247700,5.759247802734375,-0.1063079833984375,0.92156982421875,0.3516845703125
1783338520635220700,5.769220703125,-0.1059112548828125,0.92120361328125,0.3510894775390625
1783338520645193700,5.77919384765625,-0.1070709228515625,0.92083740234375,0.3510589599609375
1783338520655167000,5.7891669921875,-0.1082305908203125,0.9196624755859375,0.352325439453125
1783338520665141000,5.79914111328125,-0.108306884765625,0.9194183349609375,0.3507537841796875
1783338520675113700,5.80911376953125,-0.1064300537109375,0.9196929931640625,0.349456787109375
1783338520685086700,5.819086669921875,-0.1057891845703125,0.9210968017578125,0.347686767578125
1783338520695059700,5.829059814453125,-0.105194091796875,0.923370361328125,0.3481292724609375
1783338520705032700,5.83903271484375,-0.1028900146484375,0.9246978759765625,0.34698486328125
1783338520715005700,5.849005615234375,-0.103179931640625,0.9260101318359375,0.34735107421875
1783338520724978700,5.858978759765625,-0.10125732421875,0.9268798828125,0.3465728759765625
1783338520734951700,5.86895166015625,-0.1010894775390625,0.92620849609375,0.3459625244140625
1783338520744924700,5.878924560546875,-0.1014862060546875,0.9260711669921875,0.3451385498046875
1783338520754898000,5.88889794921875,-0.1025390625,0.9252166748046875,0.34637451171875
1783338520764870700,5.89887060546875,-0.1041107177734375,0.92401123046875,0.346099853515625
1783338520774844700,5.9088447265625,-0.104705810546875,0.9232940673828125,0.3475494384765625
1783338520784817700,5.918817626953125,-0.1051025390625,0.921783447265625,0.3484344482421875
1783338520794790700,5.928790771484375,-0.1061248779296875,0.92205810546875,0.3482666015625
1783338520804764000,5.938763916015625,-0.104766845703125,0.9226837158203125,0.34820556640625
1783338520814737000,5.94873681640625,-0.1048583984375,0.923004150390625,0.347869873046875
1783338520824709600,5.958709716796875,-0.104400634765625,0.92352294921875,0.3476104736328125
1783338520834682600,5.9686826171875,-0.1042327880859375,0.923583984375,0.348297119140625
1783338520844655900,5.97865576171875,-0.105010986328125,0.92462158203125,0.349212646484375
1783338520854628900,5.98862890625,-0.1058807373046875,0.9235076904296875,0.3492431640625
1783338520864601900,5.998601806640625,-0.1051483154296875,0.92181396484375,0.3489227294921875
1783338520874576000,6.008575927734375,-0.104736328125,0.922332763671875,0.34954833984375
1783338520884548600,6.018548583984375,-0.1069183349609375,0.92218017578125,0.34942626953125
1783338520894521600,6.028521484375,-0.107086181640625,0.9208526611328125,0.350433349609375
1783338520904494800,6.038494873046875,-0.1069488525390625,0.922149658203125,0.3526458740234375
1783338520914467800,6.0484677734375,-0.1069793701171875,0.923187255859375,0.3514251708984375
1783338520924440800,6.05844091796875,-0.1077728271484375,0.921966552734375,0.3530120849609375
1783338520934413600,6.06841357421875,-0.1071319580078125,0.922119140625,0.3528289794921875
1783338520944386800,6.07838671875,-0.1062469482421875,0.9201202392578125,0.352203369140625
1783338520954359800,6.08835986328125,-0.1065673828125,0.92083740234375,0.351898193359375
1783338520964332800,6.098332763671875,-0.108245849609375,0.9220428466796875,0.3526763916015625
1783338520974305800,6.108305908203125,-0.10693359375,0.9242095947265625,0.3526153564453125
1783338520984279600,6.118279541015625,-0.1071929931640625,0.92437744140625,0.353363037109375
1783338520994252800,6.128252685546875,-0.1081695556640625,0.922027587890625,0.35308837890625
1783338521004225800,6.138225830078125,-0.107635498046875,0.9235687255859375,0.3522491455078125
1783338521014198800,6.14819873046875,-0.106689453125,0.922821044921875,0.35308837890625
1783338521024171800,6.158171875,-0.1043548583984375,0.9230499267578125,0.3529052734375
1783338521034144500,6.16814453125,-0.103790283203125,0.9232635498046875,0.3526763916015625
1783338521044117800,6.17811767578125,-0.104766845703125,0.921478271484375,0.3515167236328125
1783338521054090800,6.1880908203125,-0.10595703125,0.921539306640625,0.3507080078125
1783338521064063700,6.198063720703125,-0.1075439453125,0.9207763671875,0.3516082763671875
1783338521074036700,6.20803662109375,-0.109405517578125,0.9215850830078125,0.3499298095703125
1783338521084009700,6.218009765625,-0.10845947265625,0.922576904296875,0.3500518798828125
1783338521093983700,6.227983642578125,-0.1073455810546875,0.9221343994140625,0.3498687744140625
1783338521103956700,6.237956787109375,-0.10601806640625,0.9231109619140625,0.34954833984375
1783338521113929700,6.2479296875,-0.1059112548828125,0.9214324951171875,0.3505401611328125
1783338521123902700,6.25790283203125,-0.104522705078125,0.9209136962890625,0.3524322509765625
1783338521133876000,6.2678759765625,-0.105682373046875,0.9221343994140625,0.35345458984375
1783338521143848700,6.2778486328125,-0.105499267578125,0.9235687255859375,0.352264404296875
1783338521153821700,6.28782177734375,-0.1054840087890625,0.9223480224609375,0.35394287109375
1783338521163794700,6.297794677734375,-0.1056365966796875,0.922760009765625,0.3543548583984375
1783338521173767700,6.307767578125,-0.106658935546875,0.922943115234375,0.3541107177734375
1783338521183741000,6.317740966796875,-0.1072540283203125,0.9222869873046875,0.3545379638671875
1783338521193713700,6.327713623046875,-0.1084442138671875,0.9202117919921875,0.353271484375
1783338521203687700,6.337687744140625,-0.1067047119140625,0.9212646484375,0.3538360595703125
1783338521213660700,6.34766064453125,-0.1065216064453125,0.9224853515625,0.35302734375
1783338521223633700,6.357633544921875,-0.1059112548828125,0.9218292236328125,0.3529205322265625
1783338521233607000,6.36760693359375,-0.1045074462890625,0.9235382080078125,0.35296630859375
1783338521243580000,6.377579833984375,-0.1047821044921875,0.9249420166015625,0.3538055419921875
1783338521253552600,6.387552734375,-0.1048736572265625,0.924530029296875,0.354095458984375
1783338521263525600,6.397525634765625,-0.1044769287109375,0.923309326171875,0.3551483154296875
1783338521273499000,6.407498779296875,-0.1069488525390625,0.9210357666015625,0.3550567626953125
1783338521283472000,6.417471923828125,-0.10858154296875,0.92034912109375,0.355804443359375
1783338521293444600,6.427444580078125,-0.109222412109375,0.918365478515625,0.3561248779296875
1783338521303418600,6.437418701171875,-0.1115264892578125,0.9160308837890625,0.3580474853515625
1783338521313391600,6.4473916015625,-0.1120147705078125,0.91656494140625,0.3592376708984375
1783338521323364400,6.4573642578125,-0.1103973388671875,0.9171600341796875,0.359588623046875
1783338521333337300,6.46733740234375,-0.1102752685546875,0.918304443359375,0.360382080078125
1783338521343310300,6.477310302734375,-0.10821533203125,0.919189453125,0.3616485595703125
1783338521353283000,6.487282958984375,-0.1059417724609375,0.9203338623046875,0.3624420166015625
1783338521363256300,6.49725634765625,-0.10491943359375,0.919921875,0.36187744140625
1783338521373229300,6.507229248046875,-0.105560302734375,0.9199066162109375,0.361083984375
1783338521383202300,6.517202392578125,-0.104888916015625,0.9196929931640625,0.3609619140625
1783338521393175300,6.52717529296875,-0.105865478515625,0.919158935546875,0.3607025146484375
1783338521403148300,6.537148193359375,-0.107635498046875,0.9193572998046875,0.360015869140625
1783338521413122300,6.547122314453125,-0.1067657470703125,0.9201812744140625,0.3582000732421875
1783338521423095300,6.55709521484375,-0.107086181640625,0.921234130859375,0.3580322265625
1783338521433068300,6.567068359375,-0.106964111328125,0.9214630126953125,0.3574371337890625
1783338521443041300,6.577041259765625,-0.10552978515625,0.920501708984375,0.3560028076171875
1783338521453014000,6.587013916015625,-0.1065521240234375,0.92169189453125,0.3552093505859375
1783338521462987300,6.5969873046875,-0.106048583984375,0.9210968017578125,0.35369873046875
1783338521472960300,6.606960205078125,-0.10443115234375,0.9212493896484375,0.352081298828125
1783338521482933200,6.616933349609375,-0.103424072265625,0.921966552734375,0.3539276123046875
1783338521492906200,6.62690625,-0.103302001953125,0.9236602783203125,0.3547821044921875
1783338521502879200,6.636879150390625,-0.1026458740234375,0.9231719970703125,0.354278564453125
1783338521512852200,6.646852294921875,-0.1042327880859375,0.9213409423828125,0.354278564453125
1783338521522826200,6.656826171875,-0.1040496826171875,0.919708251953125,0.354644775390625
1783338521532799200,6.66679931640625,-0.103973388671875,0.9189605712890625,0.3545989990234375
1783338521542772200,6.676772216796875,-0.1051177978515625,0.9195404052734375,0.3550872802734375
1783338521552745200,6.6867451171875,-0.10675048828125,0.919158935546875,0.3555755615234375
1783338521562718200,6.69671826171875,-0.1072235107421875,0.920135498046875,0.354034423828125
1783338521572691200,6.706691162109375,-0.107147216796875,0.92034912109375,0.3540496826171875
1783338521582664200,6.716664306640625,-0.1082916259765625,0.921661376953125,0.352630615234375
1783338521592637200,6.72663720703125,-0.107879638671875,0.920623779296875,0.350860595703125
1783338521602610400,6.7366103515625,-0.1080322265625,0.92169189453125,0.349884033203125
1783338521612583200,6.746583251953125,-0.1070709228515625,0.9231414794921875,0.3488922119140625
1783338521622556200,6.75655615234375,-0.105743408203125,0.923126220703125,0.35052490234375
1783338521632530200,6.7665302734375,-0.1060791015625,0.92218017578125,0.3506622314453125
1783338521642503200,6.776503173828125,-0.1045989990234375,0.9215240478515625,0.350311279296875
1783338521652476400,6.786476318359375,-0.1041107177734375,0.92218017578125,0.3509063720703125
1783338521662449400,6.796449462890625,-0.1038360595703125,0.922119140625,0.3509674072265625
1783338521672422100,6.806422119140625,-0.103179931640625,0.9219512939453125,0.3513946533203125
1783338521682395100,6.81639501953125,-0.1050262451171875,0.9223785400390625,0.3516693115234375
1783338521692368400,6.826368408203125,-0.1030426025390625,0.9235076904296875,0.3519439697265625
1783338521702341400,6.83634130859375,-0.103302001953125,0.9226531982421875,0.3499908447265625
1783338521712314400,6.846314453125,-0.103515625,0.9235382080078125,0.3488616943359375
1783338521722287000,6.856287109375,-0.101806640625,0.9228973388671875,0.350372314453125
1783338521732260400,6.86626025390625,-0.10357666015625,0.922607421875,0.34820556640625
1783338521742234000,6.876234130859375,-0.105377197265625,0.921112060546875,0.3486480712890625
1783338521752207400,6.886207275390625,-0.105010986328125,0.9214630126953125,0.348663330078125
1783338521762180400,6.896180419921875,-0.1063232421875,0.921234130859375,0.3471832275390625
1783338521772153000,6.906153076171875,-0.1047210693359375,0.9213409423828125,0.346038818359375
1783338521782126000,6.9161259765625,-0.106231689453125,0.9217071533203125,0.3456268310546875
1783338521792099300,6.926099365234375,-0.105865478515625,0.9224700927734375,0.3461151123046875
1783338521802072300,6.936072265625,-0.1047821044921875,0.924224853515625,0.3436737060546875
1783338521812045300,6.94604541015625,-0.103912353515625,0.9268341064453125,0.344207763671875
1783338521822018000,6.95601806640625,-0.1043548583984375,0.9275360107421875,0.346282958984375
1783338521831991300,6.9659912109375,-0.1044769287109375,0.9268646240234375,0.3443145751953125
1783338521841964300,6.97596435546875,-0.1053466796875,0.9250335693359375,0.344940185546875
1783338521851938300,6.985938232421875,-0.105010986328125,0.923858642578125,0.3454742431640625
1783338521861911300,6.995911376953125,-0.10211181640625,0.9245758056640625,0.3446502685546875
1783338521871884300,7.00588427734375,-0.1027069091796875,0.9242401123046875,0.3446502685546875
1783338521881857300,7.015857177734375,-0.10198974609375,0.9256744384765625,0.345947265625
1783338521891830300,7.025830322265625,-0.099456787109375,0.9265594482421875,0.3456268310546875
1783338521901803300,7.03580322265625,-0.097991943359375,0.9275970458984375,0.3461761474609375
1783338521911776300,7.0457763671875,-0.098236083984375,0.9263763427734375,0.3465728759765625
1783338521921749200,7.055749267578125,-0.098876953125,0.9263458251953125,0.3466796875
1783338521931722200,7.06572216796875,-0.099212646484375,0.926849365234375,0.3472137451171875
1783338521941695200,7.0756953125,-0.101654052734375,0.925689697265625,0.347991943359375
1783338521951669200,7.085669189453125,-0.1024627685546875,0.9240875244140625,0.34783935546875
1783338521961642200,7.095642333984375,-0.1055908203125,0.9221038818359375,0.3485107421875
1783338521971615200,7.105615234375,-0.1083984375,0.9195556640625,0.349945068359375
1783338521981588500,7.11558837890625,-0.108551025390625,0.9192047119140625,0.3498687744140625
1783338521991561200,7.125561279296875,-0.1085052490234375,0.920623779296875,0.35052490234375
1783338522001534200,7.1355341796875,-0.10955810546875,0.9217529296875,0.350799560546875
1783338522011507200,7.145507080078125,-0.1094970703125,0.924041748046875,0.352203369140625
1783338522021480400,7.15548046875,-0.1096649169921875,0.9237518310546875,0.3524627685546875
1783338522031453200,7.165453125,-0.1081390380859375,0.9233856201171875,0.3540496826171875
1783338522041426200,7.17542626953125,-0.1071014404296875,0.9204254150390625,0.3558502197265625
1783338522051399200,7.185399169921875,-0.107818603515625,0.92034912109375,0.3565216064453125
1783338522061372200,7.1953720703125,-0.1048583984375,0.919219970703125,0.3573455810546875
1783338522071346200,7.20534619140625,-0.10296630859375,0.9202880859375,0.3567657470703125
1783338522081319400,7.2153193359375,-0.102020263671875,0.919342041015625,0.3556365966796875
1783338522091292200,7.225292236328125,-0.103790283203125,0.92034912109375,0.3563079833984375
1783338522101265200,7.23526513671875,-0.1036376953125,0.921966552734375,0.354705810546875
1783338522111238100,7.245238037109375,-0.101409912109375,0.9238128662109375,0.3518829345703125
1783338522121211400,7.25521142578125,-0.101287841796875,0.924957275390625,0.3511199951171875
1783338522131184400,7.265184326171875,-0.100738525390625,0.92559814453125,0.3488006591796875
1783338522141157000,7.2751572265625,-0.10296630859375,0.9253387451171875,0.346405029296875
1783338522151130000,7.285130126953125,-0.102630615234375,0.926544189453125,0.346466064453125
1783338522161103400,7.295103271484375,-0.101776123046875,0.923858642578125,0.347076416015625
1783338522171077400,7.305077392578125,-0.1029815673828125,0.9227142333984375,0.346649169921875
1783338522181050400,7.31505029296875,-0.101470947265625,0.92327880859375,0.34613037109375
1783338522191023400,7.3250234375,-0.1016998291015625,0.9229278564453125,0.3462371826171875
1783338522200996000,7.33499609375,-0.101776123046875,0.923187255859375,0.3447113037109375
1783338522210969000,7.344968994140625,-0.102081298828125,0.92193603515625,0.3453216552734375
1783338522220942300,7.3549423828125,-0.10455322265625,0.9236297607421875,0.344970703125
1783338522230915300,7.364915283203125,-0.10333251953125,0.92364501953125,0.344696044921875
1783338522240888300,7.374888427734375,-0.1036834716796875,0.922607421875,0.344696044921875
1783338522250861000,7.384861083984375,-0.104705810546875,0.9228363037109375,0.34503173828125
1783338522260834300,7.394834228515625,-0.103546142578125,0.9228515625,0.3462066650390625
1783338522270807300,7.404807373046875,-0.10443115234375,0.9227142333984375,0.3483123779296875
1783338522280781300,7.41478125,-0.1036376953125,0.924591064453125,0.3490142822265625
1783338522290754300,7.42475439453125,-0.1036224365234375,0.92401123046875,0.3486175537109375
1783338522300727300,7.434727294921875,-0.1042327880859375,0.9228515625,0.3522491455078125
1783338522310700300,7.4447001953125,-0.1029510498046875,0.921295166015625,0.3529052734375
1783338522320674000,7.454674072265625,-0.103118896484375,0.9199676513671875,0.3539886474609375
1783338522330646800,7.464646728515625,-0.10302734375,0.9185791015625,0.3556976318359375
1783338522340619800,7.474619873046875,-0.10455322265625,0.920440673828125,0.3571624755859375
1783338522350592800,7.4845927734375,-0.1051788330078125,0.920928955078125,0.358734130859375
1783338522360566000,7.49456591796875,-0.10528564453125,0.9207916259765625,0.35919189453125
1783338522370539000,7.5045390625,-0.107696533203125,0.9215545654296875,0.3596954345703125
1783338522380511700,7.51451171875,-0.1061553955078125,0.919586181640625,0.360443115234375
1783338522390485800,7.52448583984375,-0.1078643798828125,0.9199676513671875,0.36065673828125
1783338522400458800,7.534458740234375,-0.10638427734375,0.9193878173828125,0.3609161376953125
1783338522410431700,7.544431640625,-0.1058197021484375,0.9179840087890625,0.361968994140625
1783338522420405000,7.554405029296875,-0.1041107177734375,0.9188690185546875,0.3619232177734375
1783338522430377700,7.564377685546875,-0.104248046875,0.9184112548828125,0.3605804443359375
1783338522440350700,7.574350830078125,-0.1040802001953125,0.918853759765625,0.3602752685546875
1783338522450323700,7.58432373046875,-0.1016082763671875,0.920318603515625,0.359954833984375
1783338522460297000,7.594296875,-0.1002655029296875,0.9218292236328125,0.3583221435546875
1783338522470270000,7.60427001953125,-0.0982666015625,0.92205810546875,0.3578643798828125
1783338522480242700,7.61424267578125,-0.0995635986328125,0.92376708984375,0.35809326171875
1783338522490215700,7.624215576171875,-0.0995330810546875,0.924530029296875,0.3565673828125
1783338522500189700,7.634189697265625,-0.0987548828125,0.92462158203125,0.3520965576171875
1783338522510163000,7.644162841796875,-0.0997314453125,0.92669677734375,0.349853515625
1783338522520136000,7.654135986328125,-0.1023712158203125,0.923553466796875,0.346588134765625
1783338522530109000,7.66410888671875,-0.1045379638671875,0.924560546875,0.34521484375
1783338522540081700,7.67408154296875,-0.1058502197265625,0.9237060546875,0.344451904296875
1783338522550055000,7.684054931640625,-0.1068572998046875,0.9231719970703125,0.343963623046875
1783338522560028000,7.69402783203125,-0.1064300537109375,0.9253082275390625,0.3444061279296875
1783338522570001000,7.7040009765625,-0.1049041748046875,0.9233856201171875,0.345916748046875
1783338522579974000,7.713973876953125,-0.103973388671875,0.92254638671875,0.347625732421875
1783338522589946600,7.723946533203125,-0.1004791259765625,0.9203948974609375,0.3482513427734375
1783338522599919900,7.733919921875,-0.100372314453125,0.923065185546875,0.3493804931640625
1783338522609894000,7.743893798828125,-0.0993499755859375,0.9228973388671875,0.3522796630859375
1783338522619867000,7.753866943359375,-0.099456787109375,0.922332763671875,0.35406494140625
1783338522629840000,7.76383984375,-0.1007232666015625,0.922393798828125,0.3531036376953125
1783338522639812900,7.773812744140625,-0.1007843017578125,0.9225311279296875,0.3538360595703125
1783338522649785900,7.783785888671875,-0.1007843017578125,0.924163818359375,0.354705810546875
1783338522659758800,7.7937587890625,-0.1023101806640625,0.924652099609375,0.353240966796875
1783338522669731800,7.80373193359375,-0.10382080078125,0.9255828857421875,0.351470947265625
1783338522679704800,7.813704833984375,-0.1042938232421875,0.924591064453125,0.354034423828125
1783338522689677800,7.823677734375,-0.1041259765625,0.92236328125,0.351593017578125
1783338522699650800,7.83365087890625,-0.1042938232421875,0.9223480224609375,0.351654052734375
1783338522709623800,7.843623779296875,-0.104461669921875,0.922637939453125,0.3529052734375
1783338522719597800,7.853597900390625,-0.1038055419921875,0.92181396484375,0.351348876953125
1783338522729570800,7.86357080078125,-0.104644775390625,0.9223175048828125,0.351898193359375
1783338522739543800,7.873543701171875,-0.10272216796875,0.9214630126953125,0.3517608642578125
1783338522749516800,7.883516845703125,-0.1013031005859375,0.92254638671875,0.350433349609375
1783338522759489800,7.89348974609375,-0.101043701171875,0.9219818115234375,0.3485870361328125
1783338522769462800,7.903462890625,-0.1016387939453125,0.9223785400390625,0.3498687744140625
1783338522779435800,7.913435791015625,-0.1015625,0.9243621826171875,0.3488616943359375
1783338522789409000,7.923408935546875,-0.10162353515625,0.9249114990234375,0.3484039306640625
1783338522799381800,7.9333818359375,-0.1024017333984375,0.925048828125,0.348419189453125
1783338522809354800,7.943354736328125,-0.10125732421875,0.924957275390625,0.34808349609375
1783338522819327700,7.95332763671875,-0.10113525390625,0.926055908203125,0.34747314453125
1783338522829301800,7.9633017578125,-0.10076904296875,0.9251251220703125,0.345855712890625
1783338522839275000,7.97327490234375,-0.100921630859375,0.9261474609375,0.345672607421875
1783338522849248000,7.983248046875,-0.0994415283203125,0.9244842529296875,0.3459625244140625
1783338522859220700,7.993220703125,-0.09881591796875,0.9247589111328125,0.34613037109375
1783338522869193700,8.00319384765625,-0.0968475341796875,0.92669677734375,0.345977783203125
1783338522879166700,8.013166748046874,-0.09765625,0.9259796142578125,0.3468170166015625
1783338522889140000,8.023139892578126,-0.0955963134765625,0.9257965087890625,0.3470916748046875
1783338522899113000,8.033113037109375,-0.0975189208984375,0.9214324951171875,0.344757080078125
1783338522909085700,8.043085693359375,-0.09991455078125,0.9243927001953125,0.3448028564453125
1783338522919058700,8.05305859375,-0.1003265380859375,0.924957275390625,0.3455352783203125
1783338522929032000,8.063031982421874,-0.1024169921875,0.924896240234375,0.3453369140625
1783338522939006000,8.073005859375,-0.1031494140625,0.92816162109375,0.347015380859375
1783338522948979000,8.08297900390625,-0.101165771484375,0.92999267578125,0.3464202880859375
1783338522958952000,8.092951904296875,-0.1017913818359375,0.92840576171875,0.347564697265625
1783338522968924700,8.102924560546874,-0.1009521484375,0.9313812255859375,0.348876953125
1783338522978898000,8.11289794921875,-0.101470947265625,0.9295501708984375,0.348602294921875
1783338522988871000,8.122870849609376,-0.0988311767578125,0.9240875244140625,0.34539794921875
1783338522998844000,8.132843994140625,-0.0995941162109375,0.9223175048828125,0.3448944091796875
1783338523008816600,8.142816650390625,-0.1020050048828125,0.922454833984375,0.34783935546875
1783338523018790000,8.152789794921874,-0.1022186279296875,0.9219207763671875,0.3490447998046875
1783338523028763000,8.162762939453126,-0.103485107421875,0.9219818115234375,0.349761962890625
1783338523038736000,8.17273583984375,-0.10357666015625,0.9201507568359375,0.349761962890625
1783338523048710000,8.1827099609375,-0.1044464111328125,0.917877197265625,0.349334716796875
1783338523058683000,8.192682861328125,-0.1041717529296875,0.919189453125,0.349853515625
1783338523068655600,8.202655517578124,-0.1050567626953125,0.922119140625,0.3515167236328125
1783338523078628900,8.21262890625,-0.1033782958984375,0.9219512939453125,0.3512420654296875
1783338523088601900,8.222601806640625,-0.10296630859375,0.9234161376953125,0.353179931640625
1783338523098574800,8.232574951171875,-0.1025238037109375,0.9210968017578125,0.3550567626953125
1783338523108547800,8.2425478515625,-0.1025238037109375,0.9179534912109375,0.3536529541015625
1783338523118520800,8.252520751953124,-0.1004486083984375,0.916229248046875,0.356231689453125
1783338523128493800,8.262493896484376,-0.10015869140625,0.9165802001953125,0.355438232421875
1783338523138466800,8.272466796875,-0.1008758544921875,0.92071533203125,0.357177734375
1783338523148439800,8.282439697265625,-0.0992279052734375,0.922332763671875,0.3565673828125
1783338523158413800,8.292413818359375,-0.0988311767578125,0.918548583984375,0.3546600341796875
1783338523168386800,8.30238671875,-0.0974884033203125,0.9224395751953125,0.352294921875
1783338523178359800,8.31235986328125,-0.093994140625,0.926605224609375,0.349334716796875
1783338523188332800,8.322332763671875,-0.08990478515625,0.928375244140625,0.345458984375
1783338523198305800,8.332305908203125,-0.089019775390625,0.932769775390625,0.340972900390625
1783338523208278800,8.34227880859375,-0.089202880859375,0.9369964599609375,0.3378143310546875
1783338523218252000,8.352251953125,-0.0889739990234375,0.9350128173828125,0.33380126953125
1783338523228224800,8.362224853515626,-0.0905303955078125,0.9314727783203125,0.3296661376953125
1783338523238197800,8.37219775390625,-0.090911865234375,0.9305572509765625,0.3299102783203125
1783338523248170800,8.382170654296875,-0.0927276611328125,0.929656982421875,0.329345703125
1783338523258144000,8.39214404296875,-0.090850830078125,0.928497314453125,0.3282012939453125
1783338523268118000,8.402117919921874,-0.0929107666015625,0.926239013671875,0.3316192626953125
1783338523278090800,8.4120908203125,-0.0944976806640625,0.928314208984375,0.336944580078125
1783338523288063700,8.422063720703125,-0.0959014892578125,0.92669677734375,0.34100341796875
1783338523298036700,8.43203662109375,-0.0988006591796875,0.9237823486328125,0.341766357421875
1783338523308010000,8.442010009765625,-0.1011962890625,0.9182586669921875,0.3474273681640625
1783338523317983200,8.451983154296874,-0.1028289794921875,0.910888671875,0.3470916748046875
1783338523327956200,8.461956298828126,-0.1013641357421875,0.91607666015625,0.3460845947265625
1783338523337929000,8.471928955078125,-0.1019134521484375,0.9223785400390625,0.353729248046875
1783338523347902000,8.48190185546875,-0.1015167236328125,0.9253387451171875,0.35858154296875
1783338523357875200,8.491875244140624,-0.0991668701171875,0.9279022216796875,0.361358642578125
1783338523367848200,8.50184814453125,-0.09710693359375,0.9303741455078125,0.362823486328125
1783338523377822200,8.511822265625,-0.0955657958984375,0.929901123046875,0.3659820556640625
1783338523387795000,8.521794921875,-0.0935211181640625,0.92596435546875,0.363616943359375
1783338523397768000,8.531767822265625,-0.092254638671875,0.920928955078125,0.3625946044921875
1783338523407741200,8.5417412109375,-0.0929107666015625,0.920684814453125,0.361419677734375
1783338523417714200,8.551714111328126,-0.092437744140625,0.9170684814453125,0.3603515625
1783338523427687200,8.561687255859376,-0.092987060546875,0.914642333984375,0.3578033447265625
1783338523437660000,8.571659912109375,-0.09368896484375,0.9154815673828125,0.3560333251953125
1783338523447633200,8.581633056640625,-0.0974273681640625,0.9187164306640625,0.3520355224609375
1783338523457606100,8.591606201171874,-0.0970306396484375,0.920623779296875,0.3494110107421875
1783338523467579100,8.6015791015625,-0.0969696044921875,0.923126220703125,0.346954345703125
1783338523477552000,8.61155224609375,-0.0982818603515625,0.925689697265625,0.345458984375
1783338523487526100,8.621526123046875,-0.10040283203125,0.926971435546875,0.3432464599609375
1783338523497499000,8.631498779296875,-0.101043701171875,0.9257049560546875,0.3416900634765625
1783338523507472100,8.64147216796875,-0.10260009765625,0.9253082275390625,0.340545654296875
1783338523517445000,8.651445068359376,-0.103179931640625,0.9252471923828125,0.3384246826171875
1783338523527418000,8.661418212890625,-0.1029815673828125,0.9227752685546875,0.3374176025390625
1783338523537391000,8.67139111328125,-0.103668212890625,0.9222412109375,0.3380889892578125
1783338523547364000,8.681364013671875,-0.103271484375,0.9257965087890625,0.3392333984375
1783338523557337000,8.691337158203124,-0.101806640625,0.9239501953125,0.342864990234375
1783338523567310000,8.70131005859375,-0.1001739501953125,0.9232330322265625,0.3447723388671875
1783338523577283000,8.711282958984375,-0.1007537841796875,0.9247894287109375,0.3495635986328125
1783338523587256300,8.72125634765625,-0.099700927734375,0.9263763427734375,0.35052490234375
1783338523597229000,8.73122900390625,-0.098052978515625,0.9248809814453125,0.3505401611328125
1783338523607203000,8.741203125,-0.09716796875,0.9260101318359375,0.3537139892578125
1783338523617176000,8.751176025390626,-0.0957183837890625,0.9267578125,0.3527069091796875
1783338523627149000,8.761149169921875,-0.096343994140625,0.926971435546875,0.3507537841796875
1783338523637122000,8.7711220703125,-0.0960235595703125,0.9275054931640625,0.350006103515625
1783338523647095000,8.781094970703125,-0.097625732421875,0.9293060302734375,0.349395751953125
1783338523657068000,8.791068115234374,-0.1012725830078125,0.93017578125,0.3497161865234375
1783338523667041000,8.801041015625,-0.1034698486328125,0.9300537109375,0.3498077392578125
1783338523677014000,8.811013916015625,-0.105224609375,0.9270477294921875,0.34857177734375
1783338523686987300,8.8209873046875,-0.1074676513671875,0.9238739013671875,0.3489990234375
1783338523696960000,8.8309599609375,-0.107666015625,0.9229278564453125,0.3487701416015625
1783338523706933000,8.84093310546875,-0.1084442138671875,0.921295166015625,0.3507232666015625
1783338523716907000,8.850906982421876,-0.1096038818359375,0.9183807373046875,0.35028076171875
1783338523726880000,8.8608798828125,-0.1082611083984375,0.917877197265625,0.3502349853515625
1783338523736853200,8.870853271484375,-0.1089935302734375,0.9161224365234375,0.3521270751953125
1783338523746826200,8.880826171875,-0.1078948974609375,0.916717529296875,0.35302734375
1783338523756799000,8.890799072265626,-0.106903076171875,0.919891357421875,0.3516082763671875
1783338523766772000,8.90077197265625,-0.1040191650390625,0.9223785400390625,0.348876953125
1783338523776745000,8.910744873046875,-0.100921630859375,0.9251556396484375,0.347442626953125
1783338523786718200,8.92071826171875,-0.0986175537109375,0.9255523681640625,0.3447418212890625
1783338523796691200,8.930691162109374,-0.0941314697265625,0.928955078125,0.341827392578125
1783338523806664000,8.940663818359376,-0.0912933349609375,0.9305267333984375,0.3384246826171875
1783338523816637000,8.950636962890625,-0.08892822265625,0.9322052001953125,0.3365020751953125
1783338523826610200,8.960610107421875,-0.086517333984375,0.9337921142578125,0.3338470458984375
1783338523836584200,8.970584228515625,-0.0852508544921875,0.9344329833984375,0.3326416015625
1783338523846557200,8.98055712890625,-0.0838775634765625,0.935211181640625,0.3329010009765625
1783338523856530200,8.9905302734375,-0.08404541015625,0.9347076416015625,0.333038330078125
1783338523866503000,9.0005029296875,-0.08740234375,0.9336700439453125,0.334564208984375
1783338523876476200,9.01047607421875,-0.0909423828125,0.9337310791015625,0.335113525390625
1783338523886449200,9.02044921875,-0.0954742431640625,0.93231201171875,0.3356475830078125
1783338523896422100,9.030422119140624,-0.10028076171875,0.9312286376953125,0.3379364013671875
1783338523906395100,9.04039501953125,-0.1043548583984375,0.92724609375,0.3388824462890625
1783338523916368100,9.0503681640625,-0.1036834716796875,0.923248291015625,0.342376708984375
1783338523926341000,9.060341064453125,-0.104400634765625,0.9213714599609375,0.342041015625
1783338523936314000,9.070314208984374,-0.1045989990234375,0.9210662841796875,0.3437042236328125
1783338523946287000,9.080287109375,-0.1021270751953125,0.92303466796875,0.3441314697265625
1783338523956261000,9.09026123046875,-0.0999603271484375,0.9229736328125,0.345001220703125
1783338523966233900,9.10023388671875,-0.0996246337890625,0.92315673828125,0.3464202880859375
1783338523976207000,9.11020703125,-0.097900390625,0.920623779296875,0.3461761474609375
1783338523986180000,9.12018017578125,-0.0980072021484375,0.9225616455078125,0.346405029296875
1783338523996153000,9.130153076171876,-0.0966339111328125,0.9255828857421875,0.3473968505859375
1783338524006126000,9.1401259765625,-0.0948944091796875,0.9282073974609375,0.347503662109375
1783338524016099000,9.15009912109375,-0.0959930419921875,0.927703857421875,0.34991455078125
1783338524026072000,9.160072021484375,-0.0952606201171875,0.925384521484375,0.348480224609375
1783338524036045000,9.170045166015624,-0.095458984375,0.92559814453125,0.348876953125
1783338524046018000,9.18001806640625,-0.095703125,0.9263916015625,0.349273681640625
1783338524055991300,9.1899912109375,-0.0960235595703125,0.92742919921875,0.3487548828125
1783338524065965000,9.199965087890625,-0.0973052978515625,0.9277496337890625,0.3459930419921875
1783338524075938000,9.20993798828125,-0.0995941162109375,0.9285888671875,0.3429718017578125
1783338524085911000,9.2199111328125,-0.101959228515625,0.927886962890625,0.3421783447265625
1783338524095884000,9.229884033203126,-0.10186767578125,0.927032470703125,0.3396453857421875
1783338524105857000,9.23985693359375,-0.1002197265625,0.9268951416015625,0.335693359375
1783338524115830300,9.249830322265625,-0.097930908203125,0.9264068603515625,0.3353118896484375
1783338524125803000,9.259802978515625,-0.095703125,0.9245452880859375,0.33642578125
1783338524135776000,9.26977587890625,-0.0945281982421875,0.9261627197265625,0.336639404296875
1783338524145749000,9.2797490234375,-0.0933990478515625,0.9275360107421875,0.3368988037109375
1783338524155722200,9.28972216796875,-0.09075927734375,0.92913818359375,0.3383636474609375
1783338524165695200,9.2996953125,-0.0901031494140625,0.9307861328125,0.3395538330078125
1783338524175668000,9.30966796875,-0.0905914306640625,0.931060791015625,0.339263916015625
1783338524185642000,9.31964208984375,-0.0904998779296875,0.9288482666015625,0.339996337890625
1783338524195643100,9.32964306640625,-0.090911865234375,0.928436279296875,0.33990478515625
1783338524205588200,9.339588134765625,-0.09173583984375,0.928192138671875,0.338897705078125
1783338524215561200,9.349561279296875,-0.0922393798828125,0.9274139404296875,0.3379364013671875
1783338524225534200,9.3595341796875,-0.093963623046875,0.9290924072265625,0.3404998779296875
1783338524235507000,9.3695068359375,-0.0959625244140625,0.928741455078125,0.337890625
1783338524245480000,9.37947998046875,-0.0934906005859375,0.927398681640625,0.3357391357421875
1783338524255453200,9.389453125,-0.09405517578125,0.9300689697265625,0.3371124267578125
1783338524265426200,9.39942626953125,-0.0934600830078125,0.9279632568359375,0.3351287841796875
1783338524275399000,9.40939892578125,-0.093475341796875,0.9292755126953125,0.3354949951171875
1783338524285372000,9.419371826171876,-0.094024658203125,0.92755126953125,0.33380126953125
1783338524295346000,9.429345947265626,-0.0948333740234375,0.9296112060546875,0.3329010009765625
1783338524305319200,9.439319091796875,-0.094635009765625,0.9315643310546875,0.3315582275390625
1783338524315292200,9.449292236328125,-0.0950775146484375,0.9318084716796875,0.3311614990234375
1783338524325264600,9.4592646484375,-0.0954437255859375,0.9315032958984375,0.3346710205078125
1783338524335237600,9.469237548828126,-0.0944061279296875,0.930938720703125,0.33489990234375
1783338524345211000,9.4792109375,-0.092559814453125,0.92901611328125,0.335479736328125
1783338524355183600,9.48918359375,-0.0915374755859375,0.9284515380859375,0.3344573974609375
1783338524365156600,9.499156494140625,-0.088165283203125,0.928985595703125,0.33697509765625
1783338524375129600,9.509129638671874,-0.087890625,0.92919921875,0.3372344970703125
1783338524385102800,9.519102783203126,-0.088348388671875,0.93084716796875,0.339111328125
1783338524395075800,9.529075927734375,-0.09051513671875,0.9284210205078125,0.338043212890625
1783338524405048600,9.539048583984375,-0.091522216796875,0.92901611328125,0.3389434814453125
1783338524415021600,9.549021484375,-0.091033935546875,0.928985595703125,0.3408966064453125
1783338524424995600,9.55899560546875,-0.0891265869140625,0.9299163818359375,0.3387603759765625
1783338524434968800,9.56896875,-0.0889892578125,0.932861328125,0.3396453857421875
1783338524444941800,9.57894189453125,-0.0904388427734375,0.9322662353515625,0.338470458984375
1783338524454914800,9.588914794921875,-0.0910186767578125,0.9306182861328125,0.33624267578125
1783338524464887600,9.598887451171874,-0.0902099609375,0.9313201904296875,0.3349151611328125
1783338524474860500,9.608860595703124,-0.0909881591796875,0.9300994873046875,0.3334197998046875
1783338524484833800,9.618833740234376,-0.0909576416015625,0.9309234619140625,0.3342132568359375
1783338524494806800,9.628806884765625,-0.0902099609375,0.931121826171875,0.3324737548828125
1783338524504779800,9.63877978515625,-0.087554931640625,0.933563232421875,0.3326263427734375
1783338524514752500,9.64875244140625,-0.090087890625,0.9344940185546875,0.3317413330078125
1783338524524725800,9.658725830078126,-0.0910491943359375,0.932891845703125,0.331939697265625
1783338524534699800,9.66869970703125,-0.0903472900390625,0.9320220947265625,0.331787109375
1783338524544672800,9.6786728515625,-0.0910186767578125,0.9286651611328125,0.3322601318359375
1783338524554645800,9.688645751953125,-0.0926971435546875,0.930328369140625,0.3331146240234375
1783338524564618800,9.69861865234375,-0.0911712646484375,0.9301910400390625,0.333587646484375
1783338524574591700,9.708591796875,-0.08978271484375,0.931060791015625,0.3346710205078125
1783338524584564700,9.718564697265625,-0.090362548828125,0.9334259033203125,0.3349761962890625
1783338524594537700,9.728537841796875,-0.0884552001953125,0.9339599609375,0.335174560546875
1783338524604510700,9.7385107421875,-0.089324951171875,0.93157958984375,0.3359222412109375
1783338524614483700,9.748483642578124,-0.089080810546875,0.930084228515625,0.3391876220703125
1783338524624456700,9.758456787109376,-0.090606689453125,0.929107666015625,0.3415069580078125
1783338524634429700,9.7684296875,-0.090728759765625,0.9261932373046875,0.3446044921875
1783338524644402700,9.778402587890625,-0.0929718017578125,0.9237060546875,0.3467559814453125
1783338524654375700,9.788375732421875,-0.094573974609375,0.9219970703125,0.3497467041015625
1783338524664349700,9.798349609375,-0.098358154296875,0.9214019775390625,0.3505401611328125
1783338524674322700,9.80832275390625,-0.100067138671875,0.9230194091796875,0.350341796875
1783338524684295700,9.818295654296875,-0.101715087890625,0.9217529296875,0.3494720458984375
1783338524694268700,9.8282685546875,-0.1038818359375,0.9228057861328125,0.346710205078125
1783338524704241700,9.83824169921875,-0.1033782958984375,0.9223175048828125,0.34423828125
1783338524714215000,9.84821484375,-0.102325439453125,0.9228057861328125,0.341522216796875
1783338524724187600,9.858187744140626,-0.0988922119140625,0.9254150390625,0.3370361328125
1783338524734160600,9.86816064453125,-0.095184326171875,0.9254913330078125,0.3361968994140625
1783338524744133600,9.878133544921875,-0.09271240234375,0.9267120361328125,0.334320068359375
1783338524754107000,9.88810693359375,-0.089447021484375,0.92742919921875,0.33526611328125
1783338524764079900,9.898079833984376,-0.0861053466796875,0.92913818359375,0.3348541259765625
1783338524774052600,9.908052490234375,-0.081268310546875,0.9304962158203125,0.3338775634765625
1783338524784026600,9.918026611328125,-0.0818023681640625,0.934173583984375,0.3325653076171875
1783338524793999600,9.92799951171875,-0.0791778564453125,0.9365234375,0.3305511474609375
1783338524803972600,9.93797265625,-0.0772705078125,0.938690185546875,0.32818603515625
1783338524813945900,9.94794580078125,-0.0771636962890625,0.939361572265625,0.327880859375
1783338524823918800,9.9579189453125,-0.0789031982421875,0.938323974609375,0.3283538818359375
1783338524833891600,9.9678916015625,-0.081451416015625,0.9358978271484375,0.32684326171875
1783338524843864600,9.977864501953125,-0.08349609375,0.932037353515625,0.3269805908203125
1783338524853837800,9.987837890625,-0.0871124267578125,0.93170166015625,0.3270721435546875
1783338524863810800,9.997810791015626,-0.0897369384765625,0.9317474365234375,0.3274383544921875
1783338524873783800,10.00778369140625,-0.092193603515625,0.93194580078125,0.3297271728515625
1783338524883756500,10.017756591796875,-0.09381103515625,0.931121826171875,0.3297882080078125
1783338524893729800,10.027729736328125,-0.095123291015625,0.930023193359375,0.3309783935546875
1783338524903702800,10.037702880859374,-0.0953216552734375,0.9290008544921875,0.3316650390625
1783338524913676800,10.0476767578125,-0.0935821533203125,0.9292449951171875,0.332305908203125
1783338524923649800,10.05764990234375,-0.0931549072265625,0.9285888671875,0.33380126953125
1783338524933622500,10.06762255859375,-0.092742919921875,0.9297027587890625,0.333282470703125
1783338524943595500,10.077595458984375,-0.0915069580078125,0.930023193359375,0.3334197998046875
1783338524953568800,10.08756884765625,-0.0921478271484375,0.93035888671875,0.3332366943359375
1783338524963541800,10.097541748046876,-0.089630126953125,0.931549072265625,0.33294677734375
1783338524973514800,10.1075146484375,-0.0896453857421875,0.9317169189453125,0.33551025390625
1783338524983487500,10.117487548828125,-0.0884552001953125,0.93115234375,0.3367156982421875
1783338524993460700,10.127460693359374,-0.0878753662109375,0.930694580078125,0.3368072509765625
1783338525003433700,10.137433837890624,-0.08648681640625,0.930023193359375,0.336669921875
1783338525013406700,10.14740673828125,-0.08709716796875,0.9283599853515625,0.3375091552734375
1783338525023379700,10.157379638671875,-0.0868072509765625,0.9284820556640625,0.3361358642578125
1783338525033352700,10.167352783203125,-0.0874481201171875,0.928070068359375,0.3350830078125
1783338525043326700,10.17732666015625,-0.088348388671875,0.9293365478515625,0.334808349609375
1783338525053299700,10.1872998046875,-0.0899658203125,0.9298858642578125,0.33404541015625
1783338525063272700,10.197272705078126,-0.08935546875,0.9317169189453125,0.334320068359375
1783338525073245700,10.20724560546875,-0.0897674560546875,0.93048095703125,0.334259033203125
1783338525083218700,10.21721875,-0.091644287109375,0.93109130859375,0.33319091796875
1783338525093191700,10.227191650390624,-0.0930023193359375,0.9297943115234375,0.333526611328125
1783338525103164700,10.23716455078125,-0.093902587890625,0.9295196533203125,0.332550048828125
1783338525113137700,10.2471376953125,-0.092681884765625,0.9311676025390625,0.3324432373046875
1783338525123110700,10.257110595703125,-0.09185791015625,0.9307861328125,0.3299102783203125
1783338525133084000,10.267083984375,-0.0902252197265625,0.9328155517578125,0.331573486328125
1783338525143056600,10.277056640625,-0.08856201171875,0.932952880859375,0.3313751220703125
1783338525153029600,10.287029541015626,-0.087371826171875,0.9317779541015625,0.331573486328125
1783338525163002600,10.297002685546875,-0.08642578125,0.93121337890625,0.33294677734375
1783338525172976600,10.3069765625,-0.0877227783203125,0.930908203125,0.33349609375
1783338525182950000,10.316949951171875,-0.0876007080078125,0.9291534423828125,0.3341827392578125
1783338525192922600,10.326922607421874,-0.0879974365234375,0.927276611328125,0.335540771484375
1783338525202895600,10.3368955078125,-0.0905609130859375,0.9264984130859375,0.3351287841796875
1783338525212868600,10.34686865234375,-0.0901031494140625,0.928131103515625,0.3333587646484375
1783338525222841900,10.356841796875,-0.091400146484375,0.9293975830078125,0.3343048095703125
1783338525232814800,10.36681494140625,-0.0893707275390625,0.9305419921875,0.331878662109375
1783338525242787600,10.37678759765625,-0.0881805419921875,0.9308624267578125,0.3310546875
1783338525252760600,10.386760498046876,-0.0888519287109375,0.93206787109375,0.3318634033203125
1783338525262733800,10.39673388671875,-0.0876922607421875,0.931671142578125,0.3306884765625
1783338525272706800,10.406706787109375,-0.086578369140625,0.9324798583984375,0.329681396484375
1783338525282679800,10.4166796875,-0.0849151611328125,0.9334564208984375,0.331268310546875
1783338525292652500,10.426652587890626,-0.085205078125,0.9334869384765625,0.3314971923828125
1783338525302626600,10.43662646484375,-0.0859832763671875,0.9341278076171875,0.3314666748046875
1783338525312599600,10.446599609375,-0.086395263671875,0.9317169189453125,0.3339996337890625
1783338525322573300,10.4565732421875,-0.087066650390625,0.9305877685546875,0.334075927734375
1783338525332546300,10.46654638671875,-0.0885772705078125,0.93048095703125,0.334808349609375
1783338525342519300,10.476519287109374,-0.088165283203125,0.9298095703125,0.333953857421875
1783338525352492000,10.486491943359376,-0.089080810546875,0.9302520751953125,0.332855224609375
1783338525362465000,10.496465087890625,-0.088226318359375,0.9307708740234375,0.3315887451171875
1783338525372438300,10.506438232421875,-0.08807373046875,0.9315643310546875,0.3296356201171875
1783338525382411300,10.516411376953124,-0.0878448486328125,0.931793212890625,0.3313751220703125
1783338525392384300,10.52638427734375,-0.08563232421875,0.931915283203125,0.3314056396484375
1783338525402357000,10.53635693359375,-0.0854339599609375,0.9317779541015625,0.331146240234375
1783338525412330200,10.546330322265625,-0.0868377685546875,0.9318695068359375,0.3335723876953125
1783338525422303200,10.55630322265625,-0.0873870849609375,0.9308319091796875,0.3341217041015625
1783338525432276200,10.566276123046874,-0.087982177734375,0.9307708740234375,0.3341522216796875
1783338525442250200,10.576250244140626,-0.0894927978515625,0.9297332763671875,0.334869384765625
1783338525452223200,10.58622314453125,-0.0903472900390625,0.9294586181640625,0.334259033203125
1783338525462196200,10.5961962890625,-0.089752197265625,0.9300079345703125,0.333343505859375
1783338525472169200,10.606169189453125,-0.091064453125,0.9310302734375,0.332855224609375
1783338525482142200,10.61614208984375,-0.0912628173828125,0.9310760498046875,0.3327789306640625
1783338525492115200,10.626115234375,-0.091400146484375,0.930908203125,0.333221435546875
1783338525502088200,10.636088134765625,-0.0894012451171875,0.9317474365234375,0.333404541015625
1783338525512061200,10.646061279296875,-0.0868988037109375,0.931121826171875,0.3332672119140625
1783338525522034200,10.6560341796875,-0.0865478515625,0.9308624267578125,0.3336181640625
1783338525532007200,10.666007080078124,-0.08697509765625,0.9295806884765625,0.3330078125
1783338525541980200,10.675980224609376,-0.0876617431640625,0.92919921875,0.3336029052734375
1783338525551953400,10.685953369140625,-0.0877532958984375,0.9309234619140625,0.33251953125
1783338525561926100,10.695926025390625,-0.0877532958984375,0.930816650390625,0.3327789306640625
1783338525571900200,10.705900146484375,-0.0870819091796875,0.9315338134765625,0.33221435546875
1783338525581873200,10.715873046875,-0.0899200439453125,0.9315643310546875,0.3328399658203125
1783338525591846100,10.72584619140625,-0.091705322265625,0.932952880859375,0.333831787109375
1783338525601819400,10.7358193359375,-0.0894775390625,0.9321746826171875,0.3338470458984375
1783338525611792400,10.74579248046875,-0.0897979736328125,0.932403564453125,0.3321075439453125
1783338525621765000,10.75576513671875,-0.0903167724609375,0.930389404296875,0.3337249755859375
1783338525631738000,10.765738037109376,-0.0879364013671875,0.9312591552734375,0.33319091796875
1783338525641711400,10.77571142578125,-0.0882568359375,0.93231201171875,0.331756591796875
1783338525651684400,10.785684326171875,-0.0877532958984375,0.9311981201171875,0.33148193359375
1783338525661657000,10.795656982421875,-0.0876617431640625,0.9316558837890625,0.3313446044921875
1783338525671630000,10.805630126953124,-0.0873870849609375,0.93060302734375,0.330352783203125
1783338525681603000,10.81560302734375,-0.085174560546875,0.93121337890625,0.3302154541015625
1783338525691576300,10.825576416015625,-0.0851287841796875,0.9304046630859375,0.329681396484375
1783338525701549300,10.83554931640625,-0.0852813720703125,0.932373046875,0.3294525146484375
1783338525711523300,10.8455234375,-0.08563232421875,0.93341064453125,0.328948974609375
1783338525721496000,10.85549609375,-0.0864715576171875,0.933990478515625,0.3270416259765625
1783338525731469000,10.865468994140626,-0.08905029296875,0.9352569580078125,0.326690673828125
1783338525741442300,10.8754423828125,-0.0882415771484375,0.9349365234375,0.3276824951171875
1783338525751415300,10.885415283203125,-0.0865631103515625,0.9348907470703125,0.3268280029296875
1783338525761388300,10.89538818359375,-0.0855865478515625,0.9321441650390625,0.3281707763671875
1783338525771361000,10.905361083984374,-0.086212158203125,0.931915283203125,0.330474853515625
1783338525781334300,10.915334228515626,-0.086761474609375,0.931427001953125,0.3332672119140625
1783338525791307300,10.925307373046875,-0.08770751953125,0.93304443359375,0.335205078125
1783338525801280300,10.9352802734375,-0.0865936279296875,0.932159423828125,0.3376312255859375
1783338525811253200,10.945253173828124,-0.0877532958984375,0.9325408935546875,0.33740234375
1783338525821226200,10.955226318359376,-0.0885162353515625,0.930267333984375,0.3390960693359375
1783338525831199200,10.96519921875,-0.0914306640625,0.9294281005859375,0.337982177734375
1783338525841172200,10.975172119140625,-0.0929107666015625,0.927459716796875,0.337677001953125
1783338525851146200,10.985146240234375,-0.09478759765625,0.92657470703125,0.3365478515625
1783338525861119200,10.995119140625,-0.09613037109375,0.9268035888671875,0.3345489501953125
1783338525871092200,11.00509228515625,-0.0972747802734375,0.9262847900390625,0.33404541015625
1783338525881065200,11.015065185546876,-0.0964202880859375,0.92889404296875,0.3314208984375
1783338525891038200,11.0250380859375,-0.0941162109375,0.9299163818359375,0.3308258056640625
1783338525901011200,11.03501123046875,-0.093048095703125,0.9309234619140625,0.3316650390625
1783338525910984200,11.044984130859374,-0.089508056640625,0.93359375,0.331268310546875
1783338525920957400,11.05495751953125,-0.0870361328125,0.9346923828125,0.33251953125
1783338525930930200,11.06493017578125,-0.0849761962890625,0.9336395263671875,0.3318634033203125
1783338525940903200,11.074903076171875,-0.08245849609375,0.9338226318359375,0.3322906494140625
1783338525950876200,11.084876220703125,-0.0812835693359375,0.9336090087890625,0.3343353271484375
1783338525960849400,11.094849365234374,-0.0809326171875,0.9326171875,0.33544921875
1783338525970822100,11.104822265625,-0.082305908203125,0.9318084716796875,0.333984375
1783338525980795100,11.114795166015625,-0.0847625732421875,0.933380126953125,0.33349609375
1783338525990769200,11.12476904296875,-0.0871124267578125,0.9311676025390625,0.3335723876953125
1783338526000742100,11.1347421875,-0.089813232421875,0.929779052734375,0.333221435546875
1783338526010715100,11.144715087890624,-0.0909271240234375,0.9290618896484375,0.33148193359375
1783338526020688400,11.1546884765625,-0.0916595458984375,0.9312286376953125,0.3300018310546875
1783338526030661000,11.1646611328125,-0.0912322998046875,0.931121826171875,0.3297119140625
1783338526040634000,11.174634033203125,-0.0899505615234375,0.93243408203125,0.32855224609375
1783338526050607000,11.184607177734375,-0.089599609375,0.9319610595703125,0.3272857666015625
1783338526060580400,11.194580322265624,-0.0884246826171875,0.933746337890625,0.3271026611328125
1783338526070553300,11.20455322265625,-0.0880889892578125,0.9332427978515625,0.3295440673828125
1783338526080526000,11.214526123046875,-0.0868682861328125,0.9329071044921875,0.3306427001953125
1783338526090499000,11.2244990234375,-0.087890625,0.931304931640625,0.33319091796875
1783338526100472300,11.234472412109374,-0.0866546630859375,0.9300994873046875,0.3324127197265625
1783338526110445300,11.2444453125,-0.0850372314453125,0.9307861328125,0.3327484130859375
1783338526120418300,11.254418212890625,-0.08563232421875,0.931976318359375,0.33221435546875
1783338526130391000,11.26439111328125,-0.0857696533203125,0.93133544921875,0.3336029052734375
1783338526140365000,11.274364990234375,-0.086639404296875,0.932220458984375,0.3340606689453125
1783338526150338000,11.284338134765624,-0.0858306884765625,0.9323272705078125,0.33203125
1783338526160311300,11.294311279296876,-0.0864105224609375,0.9320220947265625,0.33184814453125
1783338526170284300,11.3042841796875,-0.0855865478515625,0.931640625,0.33135986328125
1783338526180257300,11.31425732421875,-0.0854644775390625,0.932037353515625,0.3300018310546875
1783338526190230000,11.32422998046875,-0.0859527587890625,0.9328460693359375,0.3276824951171875
1783338526200203300,11.334203369140624,-0.0866241455078125,0.9341888427734375,0.327972412109375
1783338526210176300,11.34417626953125,-0.086578369140625,0.9342041015625,0.3286895751953125
1783338526220149200,11.354149169921875,-0.0871734619140625,0.93353271484375,0.330535888671875
1783338526230122200,11.364122314453125,-0.085968017578125,0.9318695068359375,0.3305206298828125
1783338526240095200,11.37409521484375,-0.0861663818359375,0.9330902099609375,0.3302764892578125
1783338526250068200,11.384068115234374,-0.0865936279296875,0.9325408935546875,0.33074951171875
1783338526260041200,11.394041259765626,-0.0858001708984375,0.93115234375,0.3298492431640625
1783338526270014200,11.40401416015625,-0.0864410400390625,0.931304931640625,0.3316497802734375
1783338526279988200,11.41398828125,-0.08758544921875,0.92919921875,0.3314971923828125
1783338526289961200,11.423961181640625,-0.0882415771484375,0.9292755126953125,0.33306884765625
1783338526299934200,11.433934326171874,-0.0871124267578125,0.9295196533203125,0.331451416015625
1783338526309907200,11.4439072265625,-0.087310791015625,0.9308624267578125,0.3323974609375
1783338526319880200,11.453880126953125,-0.0882110595703125,0.9306182861328125,0.33441162109375
1783338526329853000,11.46385302734375,-0.087127685546875,0.9322967529296875,0.3341064453125
1783338526339826000,11.473825927734374,-0.0868682861328125,0.932586669921875,0.33465576171875
1783338526349799000,11.483798828125,-0.0876312255859375,0.9312286376953125,0.335601806640625
1783338526359772000,11.49377197265625,-0.087921142578125,0.9312286376953125,0.3348541259765625
1783338526369745000,11.503744873046875,-0.087005615234375,0.9305267333984375,0.3342742919921875
1783338526379718000,11.5137177734375,-0.0880126953125,0.9317474365234375,0.33306884765625
1783338526389691000,11.52369091796875,-0.08819580078125,0.9325714111328125,0.330596923828125
1783338526399663900,11.533663818359376,-0.087371826171875,0.932037353515625,0.3283843994140625
1783338526409636900,11.543636962890625,-0.08563232421875,0.931549072265625,0.32830810546875
1783338526419609900,11.55360986328125,-0.0837249755859375,0.931884765625,0.329742431640625
1783338526429584000,11.563583984375,-0.08294677734375,0.9328460693359375,0.3299407958984375
1783338526439556900,11.573556884765624,-0.08087158203125,0.9340362548828125,0.3301239013671875
1783338526449529900,11.58352978515625,-0.08258056640625,0.9364013671875,0.3282928466796875
1783338526459502800,11.5935029296875,-0.0818939208984375,0.9355316162109375,0.327850341796875
1783338526469476000,11.60347607421875,-0.0832977294921875,0.9347991943359375,0.326751708984375
1783338526479448800,11.61344873046875,-0.08453369140625,0.931915283203125,0.32818603515625
1783338526489421800,11.623421875,-0.0859222412109375,0.9308319091796875,0.3282623291015625
1783338526499394800,11.633394775390625,-0.08880615234375,0.9302978515625,0.3302154541015625
1783338526509368000,11.6433681640625,-0.08837890625,0.930816650390625,0.33056640625
1783338526519341000,11.653341064453125,-0.089630126953125,0.93096923828125,0.331329345703125
1783338526529313800,11.663313720703124,-0.0894927978515625,0.9311981201171875,0.330474853515625
1783338526539286800,11.673286865234376,-0.0902862548828125,0.930145263671875,0.329376220703125
1783338526549259800,11.683259765625,-0.0903472900390625,0.92926025390625,0.3284759521484375
1783338526559233000,11.69323291015625,-0.0871429443359375,0.931640625,0.3272705078125
1783338526569205800,11.703205810546875,-0.0847930908203125,0.9324951171875,0.3265533447265625
1783338526579178800,11.7131787109375,-0.0829925537109375,0.9328155517578125,0.32904052734375
1783338526589152800,11.72315283203125,-0.0825042724609375,0.934600830078125,0.3281707763671875
1783338526599125800,11.733125732421875,-0.0827178955078125,0.9355621337890625,0.3287200927734375
1783338526609099000,11.74309912109375,-0.081756591796875,0.9344482421875,0.3303680419921875
1783338526619072000,11.753072021484375,-0.08184814453125,0.9338836669921875,0.3299713134765625
1783338526629044700,11.763044677734374,-0.08111572265625,0.933319091796875,0.330078125
1783338526639017700,11.773017822265626,-0.083099365234375,0.93267822265625,0.330108642578125
1783338526648991000,11.782990966796875,-0.084930419921875,0.9315185546875,0.33001708984375
1783338526658964000,11.7929638671875,-0.0860137939453125,0.9312591552734375,0.3292694091796875
1783338526668937000,11.80293701171875,-0.0890655517578125,0.9318695068359375,0.3293304443359375
1783338526678909700,11.81290966796875,-0.0905609130859375,0.9306182861328125,0.3314208984375
1783338526688883000,11.822883056640626,-0.09014892578125,0.92974853515625,0.33160400390625
1783338526698856000,11.83285595703125,-0.089569091796875,0.9306488037109375,0.33203125
1783338526708829000,11.842828857421875,-0.08990478515625,0.9311065673828125,0.334228515625
1783338526718802000,11.852802001953124,-0.088531494140625,0.930267333984375,0.3343048095703125
1783338526728775000,11.86277490234375,-0.08837890625,0.9283905029296875,0.333831787109375
1783338526738748000,11.872747802734375,-0.08746337890625,0.92864990234375,0.3354339599609375
1783338526748722000,11.882721923828125,-0.087921142578125,0.930084228515625,0.3359222412109375
1783338526758695000,11.89269482421875,-0.0886383056640625,0.9304046630859375,0.33544921875
1783338526768668000,11.90266796875,-0.0875701904296875,0.93035888671875,0.33587646484375
1783338526778641000,11.912640869140626,-0.087799072265625,0.931427001953125,0.335418701171875
1783338526788614000,11.92261376953125,-0.0897064208984375,0.93243408203125,0.33331298828125
1783338526798587000,11.9325869140625,-0.08819580078125,0.9330291748046875,0.334136962890625
1783338526808559900,11.942559814453125,-0.0873870849609375,0.933868408203125,0.3308258056640625
1783338526818532900,11.952532958984374,-0.087646484375,0.93212890625,0.3291168212890625
1783338526828506000,11.962506103515626,-0.0872039794921875,0.9339447021484375,0.32708740234375
1783338526838478800,11.972478759765625,-0.0863800048828125,0.9347076416015625,0.32586669921875
1783338526848451800,11.982451904296875,-0.0865631103515625,0.934234619140625,0.32452392578125
1783338526858424800,11.9924248046875,-0.0884552001953125,0.9332427978515625,0.3215789794921875
1783338526868397800,12.002397705078126,-0.087738037109375,0.9326171875,0.32232666015625
1783338526878370800,12.012370849609376,-0.086944580078125,0.9324188232421875,0.3248138427734375
1783338526888343800,12.02234375,-0.0877838134765625,0.9345703125,0.3249969482421875
1783338526898317800,12.03231787109375,-0.0858154296875,0.935546875,0.3279571533203125
1783338526908290800,12.042290771484375,-0.08624267578125,0.9344482421875,0.32684326171875
1783338526918263800,12.052263916015624,-0.085052490234375,0.9344329833984375,0.327789306640625
1783338526928237000,12.062237060546876,-0.08465576171875,0.9352874755859375,0.3275604248046875
1783338526938209800,12.072209716796875,-0.0825653076171875,0.9353485107421875,0.3271026611328125
1783338526948182800,12.082182861328125,-0.0827484130859375,0.93389892578125,0.327850341796875
1783338526958155800,12.09215576171875,-0.0844268798828125,0.9319000244140625,0.3263092041015625
1783338526968129000,12.10212890625,-0.0865631103515625,0.9327850341796875,0.3281097412109375
1783338526978102000,12.11210205078125,-0.0876617431640625,0.931854248046875,0.326934814453125
1783338526988074800,12.12207470703125,-0.087493896484375,0.931854248046875,0.328125
1783338526998047700,12.1320478515625,-0.0877532958984375,0.9330291748046875,0.3283538818359375
1783338527008021000,12.14202099609375,-0.088104248046875,0.9340667724609375,0.329925537109375
1783338527017994000,12.151993896484376,-0.08819580078125,0.9336090087890625,0.331024169921875
1783338527027967000,12.161967041015625,-0.0874786376953125,0.933013916015625,0.3319244384765625
1783338527037939700,12.171939697265625,-0.08740234375,0.93157958984375,0.333038330078125
1783338527047913000,12.181912841796875,-0.0873260498046875,0.9311065673828125,0.33331298828125
1783338527057886000,12.191885986328124,-0.0873870849609375,0.9292144775390625,0.33209228515625
1783338527067860000,12.20185986328125,-0.0885009765625,0.9305877685546875,0.331146240234375
1783338527077833000,12.2118330078125,-0.08984375,0.9316253662109375,0.3298187255859375
1783338527087806000,12.221805908203125,-0.091705322265625,0.933807373046875,0.3292236328125
1783338527097778700,12.23177880859375,-0.0892486572265625,0.9343414306640625,0.3287811279296875
1783338527107752000,12.241751953125,-0.0864715576171875,0.93292236328125,0.330322265625
1783338527117725000,12.251724853515626,-0.08721923828125,0.931640625,0.3299407958984375
1783338527127698000,12.261697998046875,-0.0858154296875,0.9310150146484375,0.33062744140625
1783338527137671000,12.2716708984375,-0.0839385986328125,0.933746337890625,0.3312530517578125
1783338527147644000,12.281643798828124,-0.085784912109375,0.933807373046875,0.3301849365234375
1783338527157617000,12.291616943359376,-0.0888671875,0.932891845703125,0.3311309814453125
1783338527167590000,12.30158984375,-0.089202880859375,0.9316864013671875,0.330108642578125
1783338527177563000,12.31156298828125,-0.08953857421875,0.9314117431640625,0.328643798828125
1783338527187536000,12.321535888671875,-0.089447021484375,0.9327545166015625,0.3265380859375
1783338527197508900,12.3315087890625,-0.0889892578125,0.93328857421875,0.32470703125
1783338527207481900,12.34148193359375,-0.0881500244140625,0.933319091796875,0.32366943359375
1783338527217454800,12.351454833984375,-0.0874786376953125,0.9343719482421875,0.3218231201171875
1783338527227427800,12.361427734375,-0.0879364013671875,0.9351654052734375,0.3225860595703125
1783338527237401900,12.37140185546875,-0.08837890625,0.93414306640625,0.323394775390625
1783338527247374800,12.381374755859374,-0.0872802734375,0.9335174560546875,0.32354736328125
1783338527257347800,12.391347900390626,-0.08624267578125,0.93231201171875,0.326934814453125
1783338527267320800,12.40132080078125,-0.086029052734375,0.93328857421875,0.3274078369140625
1783338527277293800,12.4112939453125,-0.08697509765625,0.93475341796875,0.329071044921875
1783338527287267000,12.42126708984375,-0.086029052734375,0.932830810546875,0.33050537109375
1783338527297239800,12.43123974609375,-0.08648681640625,0.9312896728515625,0.332000732421875
1783338527307212800,12.441212890625,-0.0888519287109375,0.93109130859375,0.3329315185546875
1783338527317185800,12.451185791015625,-0.0883026123046875,0.930267333984375,0.33349609375
1783338527327159300,12.4611591796875,-0.0883331298828125,0.9300994873046875,0.33355712890625
1783338527337132300,12.47113232421875,-0.087371826171875,0.930145263671875,0.3331146240234375
1783338527347105300,12.481105224609376,-0.0868988037109375,0.9310455322265625,0.332244873046875
1783338527357078300,12.491078369140626,-0.0877227783203125,0.931671142578125,0.3317718505859375
1783338527367051300,12.50105126953125,-0.08740234375,0.9329071044921875,0.3337860107421875
1783338527377024500,12.5110244140625,-0.0874481201171875,0.9335479736328125,0.331939697265625
1783338527386997200,12.520997314453124,-0.0873565673828125,0.9333648681640625,0.3325653076171875
1783338527396970200,12.53097021484375,-0.0864410400390625,0.9327850341796875,0.330108642578125
1783338527406943200,12.540943115234375,-0.086517333984375,0.931732177734375,0.3299407958984375
1783338527416917200,12.550917236328125,-0.087188720703125,0.9326324462890625,0.329132080078125
1783338527426890500,12.560890380859375,-0.0881195068359375,0.9324951171875,0.3298797607421875
1783338527436863500,12.570863525390624,-0.08843994140625,0.9314117431640625,0.3301239013671875
1783338527446836200,12.580836181640626,-0.0906829833984375,0.93023681640625,0.3288421630859375
1783338527456809200,12.590809326171875,-0.0901336669921875,0.929840087890625,0.3295135498046875
1783338527466782200,12.6007822265625,-0.088958740234375,0.9306182861328125,0.327178955078125
1783338527476755500,12.61075537109375,-0.0877532958984375,0.9327392578125,0.326995849609375
1783338527486728400,12.620728515625,-0.0892181396484375,0.934661865234375,0.3277740478515625
1783338527496701200,12.630701171875,-0.0880126953125,0.9341888427734375,0.325653076171875
1783338527506674200,12.640674072265625,-0.088623046875,0.9341888427734375,0.326324462890625
1783338527516647400,12.6506474609375,-0.0883636474609375,0.9341278076171875,0.32684326171875
1783338527526620400,12.660620361328125,-0.0862579345703125,0.9325714111328125,0.328643798828125
1783338527536593400,12.670593505859374,-0.08660888671875,0.9330596923828125,0.32708740234375
1783338527546566100,12.680566162109375,-0.087249755859375,0.9332122802734375,0.32794189453125
1783338527556539400,12.690539306640625,-0.0879364013671875,0.9330291748046875,0.3283538818359375
1783338527566512400,12.700512451171875,-0.088836669921875,0.9331207275390625,0.32830810546875
1783338527576485400,12.7104853515625,-0.0882568359375,0.9318389892578125,0.3302154541015625
1783338527586458400,12.720458251953126,-0.0895233154296875,0.9311676025390625,0.3305816650390625
1783338527596432400,12.730432373046876,-0.0889434814453125,0.931427001953125,0.3303985595703125
1783338527606405400,12.7404052734375,-0.08935546875,0.9312286376953125,0.330810546875
1783338527616378400,12.75037841796875,-0.089691162109375,0.932098388671875,0.3310546875
1783338527626351400,12.760351318359374,-0.088043212890625,0.9320068359375,0.32958984375
1783338527636324400,12.770324462890626,-0.0877838134765625,0.931732177734375,0.3299713134765625
1783338527646297300,12.78029736328125,-0.0878753662109375,0.93206787109375,0.330718994140625
1783338527656270300,12.790270263671875,-0.0858917236328125,0.932342529296875,0.3314971923828125
1783338527666243300,12.800243408203125,-0.085113525390625,0.9330902099609375,0.329620361328125
1783338527676216300,12.81021630859375,-0.084503173828125,0.931884765625,0.329376220703125
1783338527686189300,12.820189208984376,-0.0866546630859375,0.934967041015625,0.329315185546875
1783338527696162300,12.830162353515625,-0.0863494873046875,0.9340667724609375,0.328948974609375
1783338527706135300,12.84013525390625,-0.08563232421875,0.9328460693359375,0.3280029296875
1783338527716108300,12.8501083984375,-0.085174560546875,0.9332427978515625,0.326873779296875
1783338527726081300,12.860081298828124,-0.085235595703125,0.9324493408203125,0.3279266357421875
1783338527736054500,12.870054443359376,-0.08612060546875,0.9327545166015625,0.32696533203125
1783338527746027300,12.88002734375,-0.08636474609375,0.934783935546875,0.3265838623046875
1783338527756000300,12.890000244140625,-0.08795166015625,0.93603515625,0.3280029296875
1783338527765973200,12.89997314453125,-0.08953857421875,0.9365692138671875,0.326873779296875
1783338527775946500,12.909946533203126,-0.0888519287109375,0.933837890625,0.329376220703125
1783338527785920300,12.919920166015626,-0.08856201171875,0.932403564453125,0.327972412109375
1783338527795893500,12.9298935546875,-0.0897369384765625,0.9311370849609375,0.3292083740234375
1783338527805866200,12.9398662109375,-0.0897674560546875,0.928802490234375,0.3303680419921875
1783338527815839200,12.949839111328124,-0.0912017822265625,0.927947998046875,0.3319091796875
1783338527825812200,12.959812255859376,-0.0923004150390625,0.9276580810546875,0.3328094482421875
1783338527835785500,12.969785400390625,-0.091888427734375,0.92730712890625,0.33367919921875
1783338527845758500,12.979758544921875,-0.09344482421875,0.928955078125,0.3333740234375
1783338527855731200,12.989731201171875,-0.09234619140625,0.929595947265625,0.3333587646484375
