time,seconds_elapsed,z,y,x
1783338514931875800,0.065875732421875,-0.12291299551725388,-0.4970328211784363,-0.04434880614280701
1783338514941848800,0.075848876953125,-0.07500491291284561,-0.7253624200820923,-0.05368898808956146
1783338514951821800,0.08582177734375,-0.006018123589456081,-0.9006450772285461,-0.058630216866731644
1783338514961794800,0.095794921875,0.01906994730234146,-0.9715515971183777,-0.08167804032564163
1783338514971767800,0.105767822265625,0.012441338039934635,-0.9841720461845398,-0.11351745575666428
1783338514981741000,0.115740966796875,-0.023434974253177643,-0.9803494215011597,-0.17890846729278564
1783338514991713800,0.1257138671875,-0.01830865629017353,-0.801454484462738,-0.3277275264263153
1783338515001686800,0.135686767578125,0.027972660958766937,-0.4468386471271515,-0.5735466480255127
1783338515011659800,0.14565966796875,0.05147905275225639,-0.08909142017364502,-0.8457755446434021
1783338515021633000,0.155633056640625,0.04577948525547981,0.06410251557826996,-1.0898513793945312
1783338515031605800,0.165605712890625,0.06414677202701569,0.07038890570402145,-1.2684565782546997
1783338515041578800,0.175578857421875,0.12089719623327255,0.17443065345287323,-1.3434861898422241
1783338515051551700,0.1855517578125,0.18082576990127563,0.4814441204071045,-1.3096868991851807
1783338515061525000,0.19552490234375,0.222344771027565,0.8603714108467102,-1.2202321290969849
1783338515071498000,0.205498046875,0.254712849855423,1.098436951637268,-1.0706621408462524
1783338515081470700,0.215470703125,0.2989496886730194,1.1532384157180786,-0.8500798344612122
1783338515091443700,0.225443603515625,0.32984262704849243,1.1802319288253784,-0.5535334348678589
1783338515101416700,0.235416748046875,0.3982619047164917,1.0844049453735352,-0.18779712915420532
1783338515111390000,0.245389892578125,0.49925270676612854,0.9321490526199341,0.2115662395954132
1783338515121363000,0.255363037109375,0.5967879891395569,0.8732733726501465,0.6156205534934998
1783338515131335700,0.265335693359375,0.603949248790741,0.8961965441703796,0.9669130444526672
1783338515141308700,0.27530859375,0.43982940912246704,1.0016045570373535,1.245347499847412
1783338515151282000,0.285281982421875,0.028153201565146446,1.1565722227096558,1.4142497777938843
1783338515161255000,0.2952548828125,-0.42676448822021484,0.9748559594154358,1.5134629011154175
1783338515171228000,0.305227783203125,-0.7237614989280701,0.552537739276886,1.612662434577942
1783338515181200600,0.31520068359375,-0.8110686540603638,-0.3573276102542877,1.8884601593017578
1783338515191174000,0.325173828125,-0.9086900353431702,-1.1292001008987427,2.192230224609375
1783338515201147000,0.33514697265625,-1.0080628395080566,-1.6538469791412354,2.4608800411224365
1783338515211119900,0.345119873046875,-1.1921809911727905,-2.021914482116699,2.525900363922119
1783338515221092900,0.3550927734375,-1.4489930868148804,-2.2075326442718506,2.270880937576294
1783338515231065900,0.36506591796875,-1.5994163751602173,-3.024390459060669,2.344801902770996
1783338515241038800,0.375038818359375,-1.7808165550231934,-3.738914966583252,2.50073504447937
1783338515251011800,0.38501171875,-1.9019666910171509,-3.528937816619873,2.1778502464294434
1783338515260984800,0.39498486328125,-1.9162366390228271,-1.9460936784744263,1.2307488918304443
1783338515270957800,0.404957763671875,-1.7591501474380493,-0.7021825313568115,0.3698953092098236
1783338515280930800,0.414930908203125,-1.4238249063491821,0.4086679220199585,-0.3000068962574005
1783338515290903800,0.42490380859375,-1.1807416677474976,1.1680935621261597,-0.8607484698295593
1783338515300876800,0.434876708984375,-0.8437623381614685,1.3643604516983032,-1.38640558719635
1783338515310849500,0.444849609375,-0.40388697385787964,1.4717342853546143,-1.7618833780288696
1783338515320822300,0.454822265625,-0.1449802815914154,1.4349454641342163,-1.8977630138397217
1783338515330795300,0.464795166015625,-0.07732720673084259,1.1323344707489014,-1.8329397439956665
1783338515340768300,0.474768310546875,-0.16259169578552246,0.7541285157203674,-1.6653505563735962
1783338515350741500,0.484741455078125,-0.23859991133213043,0.4034126102924347,-1.3904920816421509
1783338515360714500,0.494714599609375,-0.22457174956798553,0.0010350423399358988,-1.0007535219192505
1783338515370687200,0.504687255859375,-0.16216883063316345,-0.4134308695793152,-0.5560842752456665
1783338515380660200,0.51466015625,-0.115546815097332,-0.9618768095970154,-0.0694277361035347
1783338515390633500,0.524633544921875,-0.01638481393456459,-1.5570900440216064,0.47238466143608093
1783338515400606500,0.5346064453125,-0.010193909518420696,-1.9700738191604614,0.7302087545394897
1783338515410579500,0.544579345703125,-0.12285574525594711,-2.4355695247650146,0.7604023814201355
1783338515420552200,0.55455224609375,-0.25815895199775696,-2.7457783222198486,0.6561937928199768
1783338515430525200,0.564525146484375,-0.30930253863334656,-2.7996180057525635,0.47929495573043823
1783338515440498400,0.57449853515625,-0.16783981025218964,-2.8229193687438965,0.24243780970573425
1783338515450472400,0.584472412109375,0.17315053939819336,-2.9790804386138916,0.006331533193588257
1783338515460445400,0.594445556640625,0.5587934851646423,-3.2032408714294434,-0.17235827445983887
1783338515470418200,0.604418212890625,0.7954254746437073,-3.2867672443389893,-0.263810932636261
1783338515480391200,0.61439111328125,0.8262252807617188,-3.24965238571167,-0.3504224419593811
1783338515490364400,0.624364501953125,0.6633037328720093,-3.14152455329895,-0.41146421432495117
1783338515500337400,0.63433740234375,0.39831414818763733,-2.9511594772338867,-0.45085448026657104
1783338515510310400,0.644310302734375,0.09167777001857758,-2.653557062149048,-0.47160157561302185
1783338515520283100,0.654283203125,-0.18638624250888824,-2.3714499473571777,-0.5106678605079651
1783338515530256400,0.66425634765625,-0.3036705255508423,-2.153170585632324,-0.5790415406227112
1783338515540229400,0.6742294921875,-0.21117377281188965,-1.9938920736312866,-0.6571841239929199
1783338515550202400,0.684202392578125,0.020890088751912117,-1.9331886768341064,-0.7612742781639099
1783338515560175400,0.69417529296875,0.25592392683029175,-1.8118480443954468,-0.8499516248703003
1783338515570148400,0.7041484375,0.407918781042099,-1.6221563816070557,-0.9666451811790466
1783338515580121300,0.714121337890625,0.454126238822937,-1.3984328508377075,-1.083678126335144
1783338515590094300,0.72409423828125,0.5673497319221497,-1.3420283794403076,-1.1954052448272705
1783338515600067300,0.7340673828125,0.8889696002006531,-1.436964988708496,-1.234230637550354
1783338515610040300,0.744040283203125,1.341049313545227,-1.6259362697601318,-1.161989450454712
1783338515620013300,0.754013427734375,1.703812599182129,-1.8957730531692505,-0.9238070845603943
1783338515629986300,0.763986328125,1.7951747179031372,-2.382154703140259,-0.5548143982887268
1783338515639959300,0.773959228515625,1.767265796661377,-3.2913899421691895,-0.24783486127853394
1783338515649932300,0.783932373046875,1.7932100296020508,-4.415942668914795,0.022716477513313293
1783338515659905500,0.793905517578125,1.9039288759231567,-5.481362342834473,0.3419214189052582
1783338515669878300,0.803878173828125,2.102482795715332,-6.493119716644287,0.7074903249740601
1783338515679851300,0.813851318359375,2.40073299407959,-7.403452396392822,1.0529451370239258
1783338515689824300,0.82382421875,2.835010051727295,-8.173959732055664,1.333695650100708
1783338515699797500,0.833797607421875,3.343331813812256,-8.646539688110352,1.5488979816436768
1783338515709770500,0.8437705078125,3.7923154830932617,-8.753036499023438,1.7394996881484985
1783338515719743200,0.8537431640625,4.111981391906738,-8.444114685058594,1.9059927463531494
1783338515729716200,0.86371630859375,4.294978141784668,-7.833337306976318,2.0085031986236572
1783338515739689500,0.873689453125,4.439874649047852,-7.054172515869141,2.067192792892456
1783338515749662500,0.883662353515625,4.658867835998535,-6.2619171142578125,2.1196329593658447
1783338515759635500,0.893635498046875,4.909631729125977,-5.411647796630859,2.15337872505188
1783338515769608200,0.903608154296875,5.034267902374268,-4.50409460067749,2.1909451484680176
1783338515779581200,0.913581298828125,5.023667812347412,-3.760526657104492,2.226720094680786
1783338515789554400,0.923554443359375,4.841353416442871,-3.3605237007141113,2.2465755939483643
1783338515799527400,0.93352734375,4.584497451782227,-3.2650158405303955,2.269932508468628
1783338515809500200,0.943500244140625,4.357619285583496,-3.18458890914917,2.307013750076294
1783338515819473200,0.95347314453125,4.248034477233887,-2.9737348556518555,2.381563901901245
1783338515829446400,0.9634462890625,4.227742671966553,-2.6691977977752686,2.4888916015625
1783338515839419400,0.97341943359375,4.269134044647217,-2.3165364265441895,2.6336965560913086
1783338515849392400,0.983392333984375,4.277773857116699,-1.979230523109436,2.7838406562805176
1783338515859366400,0.993366455078125,4.0402936935424805,-1.7628464698791504,2.929414749145508
1783338515869339100,1.003339111328125,3.603588342666626,-1.6643695831298828,3.0593931674957275
1783338515879312400,1.0133125,3.17681884765625,-1.6596390008926392,3.1251189708709717
1783338515889285400,1.023285400390625,2.8065693378448486,-1.6595033407211304,3.1056628227233887
1783338515899258400,1.03325830078125,2.511028528213501,-1.551849365234375,2.9899959564208984
1783338515909231400,1.0432314453125,2.207656145095825,-1.263002634048462,2.7352187633514404
1783338515919204400,1.053204345703125,1.9376327991485596,-0.8080032467842102,2.303405523300171
1783338515929177300,1.06317724609375,1.6313165426254272,-0.11687542498111725,1.7663577795028687
1783338515939150300,1.073150390625,1.3009846210479736,0.622821033000946,1.2445348501205444
1783338515949123300,1.083123291015625,0.9094359874725342,1.1146049499511719,0.872549295425415
1783338515959096300,1.093096435546875,0.4560692310333252,1.2611591815948486,0.7371619939804077
1783338515969069300,1.1030693359375,-0.007579386234283447,1.1249113082885742,0.7365763783454895
1783338515979042300,1.113042236328125,-0.4317483603954315,0.8603204488754272,0.7192105650901794
1783338515989015300,1.123015380859375,-0.7596268653869629,0.6044349074363708,0.6255874037742615
1783338515998988300,1.13298828125,-0.9903436303138733,0.33605507016181946,0.5228119492530823
1783338516008961500,1.14296142578125,-1.0916266441345215,0.0017532415222376585,0.4205876290798187
1783338516018934300,1.152934326171875,-0.908952534198761,-0.0529775470495224,-0.13584905862808228
1783338516028907300,1.1629072265625,-0.4884122610092163,-0.02349848300218582,-0.8881164193153381
1783338516038880300,1.17288037109375,-0.08057238161563873,-0.20355278253555298,-1.2268955707550049
1783338516048853500,1.182853515625,0.23386918008327484,-0.743226170539856,-1.1584336757659912
1783338516058826500,1.192826416015625,0.4215583801269531,-1.458412528038025,-0.8862003684043884
1783338516068799200,1.20279931640625,0.49211883544921875,-1.961861252784729,-0.663353681564331
1783338516078772200,1.212772216796875,0.5142021775245667,-2.148454427719116,-0.5868659615516663
1783338516088745500,1.222745361328125,0.4992426633834839,-2.147599220275879,-0.5641446709632874
1783338516098718500,1.232718505859375,0.4435964524745941,-2.115823984146118,-0.45638540387153625
1783338516108691200,1.242691162109375,0.38679391145706177,-2.1946821212768555,-0.24209202826023102
1783338516118664200,1.252664306640625,0.30454564094543457,-2.299633502960205,-0.021214310079813004
1783338516128637400,1.262637451171875,0.20473916828632355,-2.2222936153411865,0.09656425565481186
1783338516138610400,1.2726103515625,0.11924748122692108,-1.757983922958374,0.08976701647043228
1783338516148583400,1.28258349609375,0.0600787028670311,-1.1057658195495605,0.11516798287630081
1783338516158556200,1.29255615234375,-0.04937392845749855,-0.5215986967086792,0.14051812887191772
1783338516168530200,1.3025302734375,-0.1672086864709854,-0.12330299615859985,0.21600568294525146
1783338516178503200,1.312503173828125,-0.2636503279209137,-0.07031349837779999,0.44659197330474854
1783338516188476400,1.322476318359375,-0.25119924545288086,-0.06331498175859451,0.6248013377189636
1783338516198449400,1.332449462890625,-0.11461053043603897,0.035063911229372025,0.720879316329956
1783338516208422400,1.34242236328125,0.0025352658703923225,0.18464940786361694,0.6519811749458313
1783338516218395100,1.35239501953125,0.05132332816720009,0.29401856660842896,0.5214067697525024
1783338516228368400,1.362368408203125,0.08938762545585632,0.31034108996391296,0.4189312160015106
1783338516238341400,1.37234130859375,0.10886021703481674,0.37205079197883606,0.2971299886703491
1783338516248314400,1.382314453125,0.12634333968162537,0.4927348792552948,0.1539245992898941
1783338516258287400,1.392287353515625,0.14226338267326355,0.6023321151733398,0.019115248695015907
1783338516268260400,1.40226025390625,0.12773850560188293,0.744342565536499,-0.10963873565196991
1783338516278233300,1.4122333984375,0.07842539250850677,0.9884401559829712,-0.2429867386817932
1783338516288206300,1.422206298828125,0.017352983355522156,1.2674603462219238,-0.44681787490844727
1783338516298179300,1.432179443359375,-0.0627390667796135,1.4112660884857178,-0.6137728095054626
1783338516308152300,1.44215234375,-0.20914262533187866,1.522106647491455,-0.7209650278091431
1783338516318125800,1.452125732421875,-0.4410533607006073,1.6064302921295166,-0.8748030662536621
1783338516328098800,1.462098876953125,-0.6233153343200684,1.6305677890777588,-1.0071874856948853
1783338516338071800,1.47207177734375,-0.7210618853569031,1.4181572198867798,-0.9547582268714905
1783338516348044800,1.482044921875,-0.8645543456077576,1.1979784965515137,-0.8896665573120117
1783338516358018000,1.49201806640625,-1.04274582862854,1.008884310722351,-0.8920414447784424
1783338516367990800,1.50199072265625,-1.1662884950637817,0.6422452330589294,-0.7200145721435547
1783338516377963800,1.5119638671875,-1.086305022239685,0.1876630187034607,-0.4178711473941803
1783338516387936800,1.521936767578125,-0.9464221596717834,-0.36671364307403564,-0.09357057511806488
1783338516397909800,1.53190966796875,-0.7681933641433716,-1.0115331411361694,0.22001339495182037
1783338516407883000,1.541883056640625,-0.5856807827949524,-1.604009747505188,0.4930987060070038
1783338516417857000,1.55185693359375,-0.3732512891292572,-1.8819864988327026,0.5570099949836731
1783338516427829800,1.561829833984375,-0.18306484818458557,-1.807544469833374,0.36196169257164
1783338516437802800,1.571802734375,-0.05025245249271393,-1.5378249883651733,-0.03790067881345749
1783338516447775700,1.581775634765625,0.06871601194143295,-1.2378984689712524,-0.5532321929931641
1783338516457749000,1.5917490234375,0.13527406752109528,-0.9471757411956787,-0.9166110754013062
1783338516467722000,1.601721923828125,0.13061246275901794,-0.694689154624939,-1.0516314506530762
1783338516477694700,1.61169482421875,0.10110016167163849,-0.45267733931541443,-1.0295675992965698
1783338516487667700,1.621667724609375,0.08352037519216537,-0.17263396084308624,-0.9729052782058716
1783338516497641000,1.631640869140625,0.05761129409074783,0.17931537330150604,-0.9656701683998108
1783338516507614000,1.641614013671875,0.06305639445781708,0.6095751523971558,-1.0303221940994263
1783338516517587000,1.6515869140625,0.1495146006345749,1.094226598739624,-1.0860352516174316
1783338516527559700,1.6615595703125,0.32298359274864197,1.4831407070159912,-1.1370041370391846
1783338516537533000,1.671532958984375,0.4243616461753845,1.4021981954574585,-1.1958845853805542
1783338516547506000,1.681505859375,0.5574133992195129,1.373927354812622,-1.206480860710144
1783338516557479000,1.69147900390625,0.8370713591575623,1.674974799156189,-1.219558835029602
1783338516567451600,1.70145166015625,1.0827322006225586,2.076047420501709,-1.141728162765503
1783338516577424600,1.711424560546875,1.1018472909927368,1.9846010208129883,-1.0074834823608398
1783338516587398000,1.72139794921875,1.0575677156448364,1.6594727039337158,-0.8224384784698486
1783338516597371000,1.731370849609375,1.080381989479065,1.124160885810852,-0.6004458665847778
1783338516607343900,1.74134375,1.1116259098052979,0.4312055706977844,-0.47761738300323486
1783338516617316600,1.751316650390625,1.1687277555465698,-0.1323225200176239,-0.32689523696899414
1783338516627290600,1.76129052734375,1.2837138175964355,-0.3659219741821289,-0.1037503182888031
1783338516637264000,1.771263916015625,1.4718921184539795,-0.28435349464416504,0.16923537850379944
1783338516647236900,1.78123681640625,1.6810762882232666,-0.11439695209264755,0.43861597776412964
1783338516657209900,1.7912099609375,1.9084527492523193,-0.0855751782655716,0.7304157018661499
1783338516667182800,1.801182861328125,2.0817227363586426,-0.08403586596250534,1.0965385437011719
1783338516677155800,1.81115576171875,2.177523136138916,-0.0757659524679184,1.400105595588684
1783338516687128800,1.82112890625,2.186141014099121,-0.06520119309425354,1.5862587690353394
1783338516697101800,1.831101806640625,2.1463189125061035,-0.030228594318032265,1.6675388813018799
1783338516707074800,1.84107470703125,2.0121028423309326,-0.10588447004556656,1.639153003692627
1783338516717047800,1.8510478515625,1.6710604429244995,-0.34463974833488464,1.443899393081665
1783338516727020800,1.861020751953125,1.264329433441162,-0.6218910813331604,1.0584735870361328
1783338516736993800,1.870993896484375,0.891833484172821,-0.5691802501678467,0.6680886149406433
1783338516746966800,1.880966796875,0.6048307418823242,-0.1722448319196701,0.3904511630535126
1783338516756939800,1.890939697265625,0.4018286168575287,0.23784714937210083,0.150231271982193
1783338516766913000,1.9009130859375,0.31254056096076965,0.48183050751686096,-0.05090291053056717
1783338516776885800,1.9108857421875,0.3098732829093933,0.5429613590240479,-0.1805606633424759
1783338516786858800,1.920858642578125,0.38688260316848755,0.5084742307662964,-0.21645981073379517
1783338516796831700,1.930831787109375,0.5013364553451538,0.38644492626190186,-0.13915473222732544
1783338516806805000,1.940804931640625,0.6636736989021301,0.17390312254428864,0.00879239197820425
1783338516816778000,1.950778076171875,0.8719112873077393,-0.004344720859080553,0.15904812514781952
1783338516826752000,1.960751953125,1.1355756521224976,-0.09201757609844208,0.28377512097358704
1783338516836724700,1.970724853515625,1.459104299545288,-0.14659763872623444,0.3555030822753906
1783338516846697700,1.98069775390625,1.836821436882019,-0.2163442224264145,0.3886258900165558
1783338516856671000,1.9906708984375,2.261716842651367,-0.3458099365234375,0.3731675446033478
1783338516866644000,2.00064404296875,2.7551627159118652,-0.4488833248615265,0.33585265278816223
1783338516876616700,2.01061669921875,3.279127597808838,-0.46312862634658813,0.28970351815223694
1783338516886589700,2.020589599609375,3.799908399581909,-0.3812401592731476,0.2586134970188141
1783338516896562700,2.030562744140625,4.237659931182861,-0.2498098462820053,0.25622931122779846
1783338516906536000,2.040535888671875,4.533985614776611,0.11137949675321579,0.22990158200263977
1783338516916509000,2.050509033203125,4.669614315032959,0.6566193103790283,0.16087891161441803
1783338516926481700,2.060481689453125,4.750960350036621,1.024739384651184,0.11547867208719254
1783338516936454700,2.07045458984375,4.799652099609375,1.1604914665222168,0.10707684606313705
1783338516946428000,2.080427978515625,4.842933177947998,1.1141871213912964,0.12024111300706863
1783338516956401000,2.09040087890625,4.8825836181640625,0.880729615688324,0.18482257425785065
1783338516966374000,2.100373779296875,4.92986536026001,0.393312007188797,0.3316149413585663
1783338516976346600,2.1103466796875,4.945005893707275,-0.16894982755184174,0.5197194218635559
1783338516986320000,2.12031982421875,4.888458251953125,-0.7261449098587036,0.7544251084327698
1783338516996292900,2.13029296875,4.7620015144348145,-0.8351975679397583,0.861804187297821
1783338517006265900,2.140265869140625,4.541034698486328,-1.1352369785308838,0.894981324672699
1783338517016239900,2.150239990234375,4.158366680145264,-1.4672513008117676,0.7806134819984436
1783338517026212900,2.160212890625,3.6191108226776123,-1.5788425207138062,0.5239047408103943
1783338517036185900,2.170185791015625,2.992933750152588,-1.779697060585022,0.25979509949684143
1783338517046158800,2.180158935546875,2.421745538711548,-2.066844940185547,0.21828041970729828
1783338517056131800,2.1901318359375,1.9645696878433228,-1.6365547180175781,-0.4334924817085266
1783338517066104800,2.200104736328125,2.0946297645568848,-0.22823044657707214,-1.4888819456100464
1783338517076077800,2.210077880859375,2.0047690868377686,0.11558263748884201,-1.0691511631011963
1783338517086050800,2.22005078125,1.4396559000015259,-0.32760438323020935,-0.033327214419841766
1783338517096023800,2.23002392578125,0.74623703956604,-0.9190805554389954,1.0096296072006226
1783338517105996800,2.239996826171875,0.34098944067955017,-1.2258715629577637,1.6490079164505005
1783338517115969800,2.2499697265625,0.11740443855524063,-1.4657232761383057,1.8793635368347168
1783338517125943000,2.259943115234375,-0.0451972596347332,-1.7055250406265259,1.8400275707244873
1783338517135915800,2.269915771484375,-0.19091500341892242,-1.85606050491333,1.6581517457962036
1783338517145888800,2.279888671875,-0.31508567929267883,-1.7507655620574951,1.3420662879943848
1783338517155861800,2.28986181640625,-0.351517915725708,-1.2715598344802856,0.8522362112998962
1783338517165835000,2.2998349609375,-0.2503875494003296,-0.4658114016056061,0.27907228469848633
1783338517175809000,2.30980908203125,-0.12424938380718231,0.389525830745697,-0.2360544055700302
1783338517185781800,2.31978173828125,-0.07795219868421555,0.9827902317047119,-0.5677239894866943
1783338517195754800,2.329754638671875,-0.09046975523233414,1.2789592742919922,-0.7492548227310181
1783338517205727700,2.339727783203125,-0.08299639821052551,1.3873331546783447,-0.8433773517608643
1783338517215701000,2.349700927734375,0.046581804752349854,1.2808672189712524,-0.863537609577179
1783338517225674000,2.359674072265625,0.2660912275314331,0.9073932766914368,-0.8197935819625854
1783338517235646700,2.369646728515625,0.3940631151199341,0.3204762637615204,-0.7384527325630188
1783338517245619700,2.37961962890625,0.35610562562942505,-0.2790026068687439,-0.6453741788864136
1783338517255592700,2.3895927734375,0.22753195464611053,-0.7192453742027283,-0.53519606590271
1783338517265566000,2.39956591796875,0.12725143134593964,-0.9623842239379883,-0.41255053877830505
1783338517275539000,2.4095390625,0.06461944431066513,-1.0172414779663086,-0.300148069858551
1783338517285511700,2.41951171875,-0.014832774177193642,-0.8810751438140869,-0.21746519207954407
1783338517295484700,2.429484619140625,-0.10185882449150085,-0.5450704097747803,-0.1659727245569229
1783338517305458000,2.4394580078125,-0.13082335889339447,-0.13761471211910248,-0.12058021128177643
1783338517315431000,2.449430908203125,-0.16436772048473358,0.20901654660701752,-0.08024674654006958
1783338517325404000,2.45940380859375,-0.2750590741634369,0.49526989459991455,-0.03859464079141617
1783338517335378000,2.4693779296875,-0.2709271311759949,0.7112983465194702,0.05389966815710068
1783338517345350700,2.4793505859375,-0.19166505336761475,0.7639386653900146,0.14706557989120483
1783338517355324000,2.489323974609375,-0.1311914026737213,0.6483982801437378,0.21081854403018951
1783338517365297000,2.499296875,-0.10729645192623138,0.4423995912075043,0.25826624035835266
1783338517375270000,2.509269775390625,-0.09159429371356964,0.21370533108711243,0.2884700894355774
1783338517385243000,2.519242919921875,-0.07049459964036942,0.012678749859333038,0.28574568033218384
1783338517395216000,2.5292158203125,-0.04493222013115883,-0.1323247253894806,0.249960795044899
1783338517405188900,2.53918896484375,-0.015895243734121323,-0.18987829983234406,0.18368563055992126
1783338517415161900,2.549161865234375,0.023805953562259674,-0.16876958310604095,0.08994597941637039
1783338517425134800,2.559134765625,0.06025104597210884,-0.09638246148824692,-0.0065017323940992355
1783338517435107800,2.56910791015625,0.07535915076732635,-0.01982545293867588,-0.08992567658424377
1783338517445080800,2.579080810546875,0.07469122856855392,0.03919578716158867,-0.1391611397266388
1783338517455053800,2.5890537109375,0.07287275791168213,0.08452320843935013,-0.1545180231332779
1783338517465026800,2.59902685546875,0.06586625427007675,0.11959251761436462,-0.149221271276474
1783338517474999800,2.608999755859375,0.057511378079652786,0.14648671448230743,-0.12597054243087769
1783338517484973800,2.618973876953125,0.04582489654421806,0.16579170525074005,-0.09545043855905533
1783338517494946800,2.62894677734375,0.03354661539196968,0.1734539270401001,-0.06093699485063553
1783338517504919800,2.638919921875,0.018755950033664703,0.17395539581775665,-0.029222741723060608
1783338517514892800,2.648892822265625,0.0043729571625590324,0.1671515256166458,0.0013033361174166203
1783338517524865800,2.65886572265625,-0.011008129455149174,0.15915058553218842,0.025752220302820206
1783338517534839000,2.668839111328125,-0.02588966116309166,0.16350199282169342,0.043432433158159256
1783338517544811800,2.678811767578125,-0.03798653930425644,0.17929106950759888,0.0579751580953598
1783338517554784800,2.68878466796875,-0.048209451138973236,0.20110690593719482,0.06956423819065094
1783338517564757800,2.6987578125,-0.05236531421542168,0.21450527012348175,0.08312718570232391
1783338517574730800,2.708730712890625,-0.04847174510359764,0.22183585166931152,0.10357826948165894
1783338517584704000,2.7187041015625,-0.03895227611064911,0.2148197591304779,0.12762156128883362
1783338517594676700,2.7286767578125,-0.027826501056551933,0.19765472412109375,0.14967307448387146
1783338517604649700,2.738649658203125,-0.01600313000380993,0.16967394948005676,0.17186041176319122
1783338517614622700,2.748622802734375,-0.004298204090446234,0.13972921669483185,0.1845698356628418
1783338517624596700,2.7585966796875,0.010880747810006142,0.11102620512247086,0.18982744216918945
1783338517634570000,2.768570068359375,0.024628372862935066,0.08342686295509338,0.1828739494085312
1783338517644543000,2.77854296875,0.0374741293489933,0.05551533028483391,0.162976935505867
1783338517654515700,2.788515625,0.046005457639694214,0.02365107275545597,0.1353777050971985
1783338517664488700,2.79848876953125,0.05204497277736664,-0.006843720097094774,0.09465611726045609
1783338517674462000,2.8084619140625,0.05249837040901184,-0.03930618241429329,0.05474589392542839
1783338517684435000,2.81843505859375,0.048497773706912994,-0.061887919902801514,0.012842116877436638
1783338517694408000,2.828407958984375,0.042398255318403244,-0.08126571029424667,-0.028101811185479164
1783338517704380700,2.838380615234375,0.03461410105228424,-0.09782738238573074,-0.06494078785181046
1783338517714354000,2.84835400390625,0.031349048018455505,-0.1133643239736557,-0.09173572808504105
1783338517724327000,2.858326904296875,0.030799638479948044,-0.1323377639055252,-0.10793999582529068
1783338517734300000,2.8682998046875,0.02571350894868374,-0.1473621279001236,-0.11506287008523941
1783338517744273000,2.87827294921875,0.02043006382882595,-0.16540132462978363,-0.11345777660608292
1783338517754245600,2.88824560546875,0.01759297400712967,-0.18272428214550018,-0.11051283031702042
1783338517764219000,2.898218994140625,0.013632054440677166,-0.20083484053611755,-0.10626108944416046
1783338517774193000,2.90819287109375,0.013985746540129185,-0.21895721554756165,-0.10549253225326538
1783338517784166000,2.918165771484375,0.012041105888783932,-0.23737192153930664,-0.10903479903936386
1783338517794139000,2.928138916015625,0.012279996648430824,-0.2526799440383911,-0.10873369872570038
1783338517804111600,2.938111572265625,0.012238983996212482,-0.2613043487071991,-0.10662288218736649
1783338517814084900,2.9480849609375,0.01350809633731842,-0.2608276605606079,-0.09905911237001419
1783338517824057900,2.958057861328125,0.011801809072494507,-0.2524762451648712,-0.0874197706580162
1783338517834030800,2.96803076171875,0.012439550831913948,-0.23596429824829102,-0.07337464392185211
1783338517844003800,2.97800390625,0.009395025670528412,-0.21361291408538818,-0.05899090692400932
1783338517853976800,2.987976806640625,0.011130922473967075,-0.1904207468032837,-0.04737824201583862
1783338517863949800,2.99794970703125,0.015965890139341354,-0.16521631181240082,-0.033609967678785324
1783338517873922800,3.0079228515625,0.01947450265288353,-0.13992905616760254,-0.026290731504559517
1783338517883895800,3.017895751953125,0.03483561798930168,-0.11969435960054398,-0.019605131819844246
1783338517893868800,3.027868896484375,0.04469025507569313,-0.10293220728635788,-0.019525250419974327
1783338517903842800,3.0378427734375,0.04603009298443794,-0.08155794441699982,-0.01991407200694084
1783338517913815800,3.04781591796875,0.05162041261792183,-0.06016814336180687,-0.01550285704433918
1783338517923788800,3.057788818359375,0.05829615890979767,-0.03959415480494499,-0.009892109781503677
1783338517933761800,3.06776171875,0.0573715940117836,-0.015240693464875221,-0.0014356588944792747
1783338517943734800,3.07773486328125,0.047361571341753006,0.013805072754621506,0.0014695834834128618
1783338517953708000,3.0877080078125,0.042321763932704926,0.042119309306144714,0.005449353717267513
1783338517963680800,3.0976806640625,0.04040002450346947,0.06426562368869781,0.009881652891635895
1783338517973653800,3.10765380859375,0.03426510840654373,0.07555153965950012,0.014032582752406597
1783338517983626800,3.117626708984375,0.02403057925403118,0.07731188833713531,0.018631329759955406
1783338517993600000,3.12760009765625,0.012803900986909866,0.0719439685344696,0.023419149219989777
1783338518003573000,3.137572998046875,0.004541977308690548,0.06399762630462646,0.03163792937994003
1783338518013545700,3.147545654296875,-0.0032633552327752113,0.051726192235946655,0.0394132025539875
1783338518023518700,3.157518798828125,-0.011667226441204548,0.03681568428874016,0.04592595994472504
1783338518033492700,3.16749267578125,-0.01360576506704092,0.024625973775982857,0.047481268644332886
1783338518043465700,3.1774658203125,-0.011078691110014915,0.009518393315374851,0.048327893018722534
1783338518053439000,3.18743896484375,-0.010090597905218601,-0.0033726110123097897,0.0519600473344326
1783338518063412000,3.197411865234375,-0.00372031657025218,-0.01741226390004158,0.050950177013874054
1783338518073384700,3.207384765625,0.0022804997861385345,-0.025659723207354546,0.04738062992691994
1783338518083357700,3.217357666015625,0.01590310037136078,-0.03897393122315407,0.047184087336063385
1783338518093331000,3.2273310546875,0.026611346751451492,-0.053215209394693375,0.046298447996377945
1783338518103304000,3.237303955078125,0.031488656997680664,-0.05331534519791603,0.038541458547115326
1783338518113276700,3.247276611328125,0.038460347801446915,-0.04543360695242882,0.029032673686742783
1783338518123249700,3.257249755859375,0.041424710303545,-0.03034093976020813,0.023573992773890495
1783338518133223000,3.267222900390625,0.045011255890131,-0.011603357270359993,0.0208637285977602
1783338518143196000,3.27719580078125,0.0493151918053627,0.0038275313563644886,0.017652489244937897
1783338518153169000,3.2871689453125,0.05362527072429657,0.009950739331543446,0.015009116381406784
1783338518163143000,3.297142822265625,0.06007092073559761,0.006975455675274134,0.014888741075992584
1783338518173115600,3.30711572265625,0.06267198920249939,-0.004455056507140398,0.015849817544221878
1783338518183089000,3.3170888671875,0.06657911092042923,-0.023724358528852463,0.016330786049365997
1783338518193062000,3.327061767578125,0.0666680559515953,-0.04688755422830582,0.01799376867711544
1783338518203035000,3.337034912109375,0.06399130821228027,-0.0712626725435257,0.020747210830450058
1783338518213008000,3.3470078125,0.0588892437517643,-0.0929654985666275,0.02185676619410515
1783338518222980900,3.35698095703125,0.04964914172887802,-0.10852581262588501,0.023171035572886467
1783338518232953900,3.366953857421875,0.040709879249334335,-0.1197514757514,0.022960875183343887
1783338518242926800,3.3769267578125,0.03435743972659111,-0.12901420891284943,0.02165619283914566
1783338518252899800,3.38689990234375,0.02826816402375698,-0.13446947932243347,0.01518183946609497
1783338518262872800,3.396872802734375,0.021450737491250038,-0.13893799483776093,0.00579393096268177
1783338518272845800,3.406845703125,0.01718554086983204,-0.1422991007566452,-0.003595031565055251
1783338518282818800,3.41681884765625,0.010070372372865677,-0.14242081344127655,-0.014253268949687481
1783338518292792800,3.426792724609375,0.004911291413009167,-0.14158865809440613,-0.025227781385183334
1783338518302765800,3.436765869140625,0.0011051015462726355,-0.1369933784008026,-0.03565698862075806
1783338518312738800,3.44673876953125,-0.0003298601368442178,-0.131811261177063,-0.04381459951400757
1783338518322712000,3.456712158203125,-0.0017812828300520778,-0.12946367263793945,-0.05063096061348915
1783338518332684800,3.466684814453125,-0.0019062503706663847,-0.12698572874069214,-0.056759461760520935
1783338518342657800,3.47665771484375,-0.0028029365930706263,-0.12630662322044373,-0.059457506984472275
1783338518352630800,3.486630859375,-0.0026142399292439222,-0.12666194140911102,-0.06013636291027069
1783338518362603800,3.496603759765625,-0.0064513226971030235,-0.12589894235134125,-0.060580313205718994
1783338518372577000,3.506576904296875,-0.005931576248258352,-0.12030070275068283,-0.05867768079042435
1783338518382549800,3.5165498046875,-0.006755025591701269,-0.11582019925117493,-0.054318882524967194
1783338518392522800,3.526522705078125,-0.006064388435333967,-0.1088910922408104,-0.04913188889622688
1783338518402495700,3.536495849609375,-0.005530158523470163,-0.10024460405111313,-0.04088674113154411
1783338518412469800,3.5464697265625,-0.004747152794152498,-0.09356418997049332,-0.027752935886383057
1783338518422443000,3.556443115234375,-0.002393184695392847,-0.0910126194357872,-0.01462328340858221
1783338518432415700,3.566415771484375,-0.0010752833914011717,-0.0903824120759964,-0.004079865757375956
1783338518442388700,3.576388671875,0.0015548544470220804,-0.09359684586524963,0.004859566688537598
1783338518452361700,3.58636181640625,0.005425086244940758,-0.09830144792795181,0.007837953045964241
1783338518462335000,3.5963349609375,0.009131141006946564,-0.10001412779092789,0.012592760846018791
1783338518472308000,3.606307861328125,0.01677503064274788,-0.10115990042686462,0.013223513029515743
1783338518482280700,3.61628076171875,0.018746037036180496,-0.10330907255411148,0.013208865188062191
1783338518492253700,3.626253662109375,0.019222965463995934,-0.10406669229269028,0.011924630962312222
1783338518502227000,3.63622705078125,0.021865885704755783,-0.10372234880924225,0.010560826398432255
1783338518512200000,3.646199951171875,0.020276326686143875,-0.09714611619710922,0.007159657776355743
1783338518522173000,3.6561728515625,0.018121296539902687,-0.08854064345359802,0.007718654815107584
1783338518532145700,3.666145751953125,0.018367432057857513,-0.07870423048734665,0.0022198990918695927
1783338518542119700,3.67611962890625,0.01500945258885622,-0.06643237918615341,-0.005078759975731373
1783338518552092700,3.6860927734375,0.01201234944164753,-0.053999874740839005,-0.010603672824800014
1783338518562066000,3.69606591796875,0.007451952900737524,-0.039674464613199234,-0.015004546381533146
1783338518572039000,3.706038818359375,0.0057699657045304775,-0.02504773810505867,-0.018373411148786545
1783338518582012000,3.716011962890625,0.0028151883743703365,-0.008905253373086452,-0.019929230213165283
1783338518591984600,3.725984619140625,0.0019629348535090685,-0.004525377880781889,-0.016514049842953682
1783338518601958000,3.7359580078125,0.0016311048530042171,-0.004088086541742086,-0.014290843158960342
1783338518611931000,3.745930908203125,0.0017468350706622005,-0.005292332265526056,-0.014039290137588978
1783338518621904000,3.75590380859375,0.003994276747107506,-0.0025197151117026806,-0.014502947218716145
1783338518631876900,3.765876953125,0.006858806125819683,0.004523060750216246,-0.014733308926224709
1783338518641849900,3.775849853515625,0.011303088627755642,0.011462725698947906,-0.007716945372521877
1783338518651822800,3.78582275390625,0.01795162819325924,0.019065558910369873,0.0015380146214738488
1783338518661796900,3.795796875,0.026124604046344757,0.021897032856941223,0.013794947415590286
1783338518671769900,3.805769775390625,0.033537767827510834,0.026743298396468163,0.02493998594582081
1783338518681742800,3.815742919921875,0.0428556352853775,0.03382810577750206,0.030802402645349503
1783338518691715800,3.8257158203125,0.04919638857245445,0.044552966952323914,0.0323030948638916
1783338518701688800,3.835688720703125,0.06765582412481308,0.038424499332904816,0.03740490972995758
1783338518711661800,3.845661865234375,0.05332912877202034,0.04510979354381561,0.034324489533901215
1783338518721634800,3.855634765625,0.04747230187058449,0.04862862825393677,0.03374924883246422
1783338518731607800,3.86560791015625,0.04812602698802948,0.04280978813767433,0.03957389295101166
1783338518741580800,3.875580810546875,0.05332425236701965,0.0178314708173275,0.046476274728775024
1783338518751553800,3.8855537109375,0.052422285079956055,-0.010995423421263695,0.05407193303108215
1783338518761526800,3.89552685546875,0.053507521748542786,-0.043798644095659256,0.06185848265886307
1783338518771499800,3.905499755859375,0.04858503118157387,-0.06973659992218018,0.06808046251535416
1783338518781473800,3.915473876953125,0.04475300759077072,-0.08183161169290543,0.06929726153612137
1783338518791447000,3.925447021484375,0.03601638227701187,-0.07698507606983185,0.0652562752366066
1783338518801419800,3.935419677734375,0.035962849855422974,-0.06306739151477814,0.05981144309043884
1783338518811392800,3.945392822265625,0.03204307332634926,-0.05091844126582146,0.05126233398914337
1783338518821365800,3.95536572265625,0.025220055133104324,-0.036109935492277145,0.03929009288549423
1783338518831339000,3.965339111328125,0.019198646768927574,-0.016687503084540367,0.024808090180158615
1783338518841312000,3.97531201171875,0.011533536948263645,0.007761115673929453,0.007414452265948057
1783338518851284700,3.98528466796875,0.006752466782927513,0.032100796699523926,-0.012280759401619434
1783338518861257700,3.9952578125,0.0009054963593371212,0.04934023693203926,-0.02990502491593361
1783338518871230700,4.005230712890625,-0.004940263461321592,0.05810997262597084,-0.0425659716129303
1783338518881204000,4.015203857421875,-0.008899052627384663,0.05894780158996582,-0.05008966848254204
1783338518891178000,4.025177978515625,-0.013687621802091599,0.05172986537218094,-0.05439027026295662
1783338518901151000,4.03515087890625,-0.015075928531587124,0.03794827312231064,-0.05507310479879379
1783338518911123700,4.045123779296875,-0.01685907691717148,0.021538924425840378,-0.05289497226476669
1783338518921096700,4.0550966796875,-0.018447652459144592,-0.0007376181893050671,-0.047303929924964905
1783338518931070000,4.065070068359375,-0.018933722749352455,-0.022182948887348175,-0.03952649235725403
1783338518941043000,4.07504296875,-0.016037002205848694,-0.04152974858880043,-0.033016130328178406
1783338518951016000,4.085015869140625,-0.014997060410678387,-0.05884604528546333,-0.02541464753448963
1783338518960988700,4.09498876953125,-0.018047180026769638,-0.07077594101428986,-0.0176472719758749
1783338518970962000,4.1049619140625,-0.016900626942515373,-0.07870041579008102,-0.015410343185067177
1783338518980935000,4.114934814453125,-0.016906486824154854,-0.08018619567155838,-0.010999348945915699
1783338518990908000,4.124907958984375,-0.01484484039247036,-0.07865184545516968,-0.010565614327788353
1783338519000880600,4.134880615234375,-0.013244015164673328,-0.07349996268749237,-0.006130386143922806
1783338519010854700,4.144854736328125,-0.011684494093060493,-0.06927324086427689,-0.003603982739150524
1783338519020827600,4.15482763671875,-0.009268208406865597,-0.06354478001594543,-0.0035288818180561066
1783338519030801000,4.16480078125,-0.0100898128002882,-0.05832931399345398,-0.008341029286384583
1783338519040774000,4.17477392578125,-0.011467997916042805,-0.04503801465034485,-0.012951227836310863
1783338519050747000,4.184746826171875,-0.007595004979521036,-0.027633415535092354,-0.019525296986103058
1783338519060719600,4.1947197265625,-0.009487980976700783,-0.009991037659347057,-0.024575449526309967
1783338519070692900,4.20469287109375,-0.008432925678789616,0.007152523845434189,-0.02768629789352417
1783338519080665900,4.214665771484375,-0.006279227323830128,0.021218275651335716,-0.029117213562130928
1783338519090638800,4.224638916015625,-0.012212161906063557,0.0346062146127224,-0.03056223876774311
1783338519100611800,4.23461181640625,-0.010861673392355442,0.046022117137908936,-0.02911507524549961
1783338519110584800,4.244584716796875,-0.009122001007199287,0.05289607495069504,-0.026187855750322342
1783338519120557800,4.254557861328125,-0.009173399768769741,0.05235598608851433,-0.021949434652924538
1783338519130531800,4.26453173828125,-0.0074856942519545555,0.04905715584754944,-0.014590980485081673
1783338519140504800,4.2745048828125,-0.008629255928099155,0.04082852229475975,-0.010218603536486626
1783338519150477800,4.284477783203125,-0.005492355674505234,0.034561168402433395,-0.0032061301171779633
1783338519160450800,4.294450927734375,-0.004760519601404667,0.027097659185528755,0.0009236338082700968
1783338519170423800,4.304423828125,-0.002459244104102254,0.026277275756001472,0.009183589369058609
1783338519180396800,4.314396728515625,-0.006079545244574547,0.023897208273410797,0.015251602977514267
1783338519190369800,4.324369873046875,-0.0032836138270795345,0.026757122948765755,0.021051421761512756
1783338519200342800,4.3343427734375,-0.0049174632877111435,0.03064240887761116,0.025494109839200974
1783338519210316000,4.34431591796875,-0.0073855966329574585,0.03761554881930351,0.027575751766562462
1783338519220288800,4.354288818359375,-0.007478274405002594,0.04668787494301796,0.02840932086110115
1783338519230261800,4.36426171875,-0.009326537139713764,0.054648082703351974,0.027084527537226677
1783338519240235800,4.37423583984375,-0.009557965211570263,0.06007666885852814,0.02680649235844612
1783338519250208800,4.384208740234375,-0.010858877561986446,0.0645720437169075,0.02555619552731514
1783338519260182000,4.39418212890625,-0.008997861295938492,0.07085177302360535,0.02135053277015686
1783338519270155000,4.404155029296875,-0.011044943705201149,0.07864685356616974,0.01613101176917553
1783338519280127700,4.414127685546875,-0.010186873376369476,0.08618573844432831,0.013102998957037926
1783338519290100700,4.424100830078125,-0.008471737615764141,0.08798898756504059,0.008084677159786224
1783338519300074000,4.434073974609375,-0.008936725556850433,0.09026119858026505,0.004100854508578777
1783338519310047000,4.444046875,-0.007560570724308491,0.08742669224739075,0.0054077026434242725
1783338519320020200,4.454020263671875,-0.00620315782725811,0.08260557055473328,0.004794909618794918
1783338519329993000,4.463992919921875,-0.005870772060006857,0.07865119725465775,0.004887564107775688
1783338519339966000,4.473966064453125,-0.0030720559880137444,0.07261274755001068,0.0068809399381279945
1783338519349939200,4.483939208984375,-0.00042620557360351086,0.06925822794437408,0.007898533716797829
1783338519359913200,4.493913330078125,0.0007349327206611633,0.0637872964143753,0.011183809489011765
1783338519369886200,4.50388623046875,0.0021649892441928387,0.06036697328090668,0.01171283982694149
1783338519379859000,4.51385888671875,0.0032656737603247166,0.05437193065881729,0.014097434468567371
1783338519389832000,4.52383203125,0.004290700890123844,0.04971417412161827,0.013409830629825592
1783338519399805200,4.53380517578125,0.005704040639102459,0.050634562969207764,0.014430087059736252
1783338519409778200,4.543778076171875,0.0055913133546710014,0.04909764602780342,0.014763189479708672
1783338519419751200,4.553751220703125,0.003632558509707451,0.050875838845968246,0.016591716557741165
1783338519429724000,4.563723876953125,0.0025666733272373676,0.0468941368162632,0.018779225647449493
1783338519439697200,4.573697265625,0.003056428860872984,0.04118138924241066,0.016449226066470146
1783338519449670100,4.583670166015625,0.0029967972077429295,0.03610343113541603,0.013621991500258446
1783338519459644200,4.59364404296875,0.003996547777205706,0.03351430594921112,0.009334567934274673
1783338519469617200,4.6036171875,0.0028372546657919884,0.03309692069888115,0.005122431553900242
1783338519479590100,4.613590087890625,0.0014401604421436787,0.03425300121307373,0.001420903718098998
1783338519489563000,4.62356298828125,0.0002514701336622238,0.03587348014116287,0.0004104888066649437
1783338519499536100,4.6335361328125,-0.0032090411987155676,0.03742610290646553,-0.001847872044891119
1783338519509509000,4.643509033203125,-0.004594010766595602,0.03640277311205864,-0.006701656151562929
1783338519519482000,4.653482177734375,-0.008074762299656868,0.0344751738011837,-0.007026562001556158
1783338519529455000,4.663455078125,-0.009484290145337582,0.0355273112654686,-0.01140202023088932
1783338519539428000,4.673427978515625,-0.008309036493301392,0.032139502465724945,-0.012518149800598621
1783338519549401000,4.683401123046875,-0.007862751372158527,0.03149259462952614,-0.016056831926107407
1783338519559374000,4.6933740234375,-0.005627826787531376,0.026669075712561607,-0.019835324957966805
1783338519569347000,4.70334716796875,-0.0017759565962478518,0.02030211128294468,-0.02192234992980957
1783338519579321000,4.713321044921875,0.0018605899531394243,0.016077008098363876,-0.021846717223525047
1783338519589294000,4.723294189453125,0.0036359818186610937,0.010157836601138115,-0.017438318580389023
1783338519599267000,4.73326708984375,0.006383032537996769,0.007985495962202549,-0.011663518846035004
1783338519609240000,4.743239990234375,0.005851972382515669,0.001356104388833046,-0.005394576583057642
1783338519619213000,4.753213134765625,0.00804002583026886,-0.0006561800837516785,-0.0009976979345083237
1783338519629186000,4.76318603515625,0.008773991838097572,-0.004038128536194563,0.0014377627521753311
1783338519639159300,4.7731591796875,0.00834442488849163,-0.0054930136539042,0.004067634232342243
1783338519649132000,4.783132080078125,0.009362565353512764,-0.005267464090138674,0.004545059520751238
1783338519659105000,4.79310498046875,0.009400648064911366,-0.005851495545357466,0.003001757897436619
1783338519669078000,4.803078125,0.008687603287398815,-0.007014730013906956,0.0013161259703338146
1783338519679051300,4.81305126953125,0.009523036889731884,-0.00956630427390337,-0.001559555297717452
1783338519689025300,4.823025390625,0.008832825347781181,-0.010594189167022705,-0.006265140604227781
1783338519698998000,4.832998046875,0.008366505615413189,-0.01448000781238079,-0.007770093623548746
1783338519708971000,4.842970947265625,0.0054892306216061115,-0.016081809997558594,-0.010365182533860207
1783338519718944000,4.852944091796875,0.004747806582599878,-0.018020588904619217,-0.012797979637980461
1783338519728917200,4.862917236328125,0.0011088023893535137,-0.016795562580227852,-0.014720654115080833
1783338519738890200,4.87289013671875,-0.0013695353409275413,-0.01733219064772129,-0.017689280211925507
1783338519748863000,4.882863037109375,-0.0003443250898271799,-0.016826266422867775,-0.018971949815750122
1783338519758836000,4.8928359375,-0.002144888276234269,-0.01541532389819622,-0.021464668214321136
1783338519768809000,4.90280908203125,-0.0020692311227321625,-0.011388200335204601,-0.024167269468307495
1783338519778782200,4.9127822265625,-0.002761120442301035,-0.008225696161389351,-0.023067915812134743
1783338519788755200,4.922755126953125,-0.002951704664155841,-0.004212681204080582,-0.02110007032752037
1783338519798729200,4.932729248046875,-0.0014544753357768059,-0.007666534744203091,-0.018952231854200363
1783338519808702000,4.942701904296875,-0.0028923347126692533,-0.013098654337227345,-0.014827342703938484
1783338519818675000,4.952675048828125,-0.003269438399001956,-0.01731390506029129,-0.0158313550055027
1783338519828648200,4.962648193359375,-0.002160064410418272,-0.01682191528379917,-0.016776546835899353
1783338519838621200,4.97262109375,-0.003981400281190872,-0.02162892185151577,-0.016469484195113182
1783338519848594200,4.98259423828125,-0.0018334619235247374,-0.024869825690984726,-0.014966359362006187
1783338519858567000,4.99256689453125,-0.0025546459946781397,-0.027697037905454636,-0.015364503487944603
1783338519868540200,5.0025400390625,-0.0012409694027155638,-0.028965527191758156,-0.015787817537784576
1783338519878513200,5.01251318359375,-0.00030513457022607327,-0.02677028439939022,-0.01779770478606224
1783338519888486100,5.022486083984375,-0.0018611549166962504,-0.01997777447104454,-0.01657794415950775
1783338519898459100,5.032459228515625,-0.003974372986704111,-0.015499137341976166,-0.0158556941896677
1783338519908433200,5.04243310546875,-0.004268021322786808,-0.012450720183551311,-0.012192746624350548
1783338519918406000,5.052406005859375,-0.0064536770805716515,-0.011749508790671825,-0.01021881215274334
1783338519928379100,5.062379150390625,-0.005755952559411526,-0.011033808812499046,-0.01178978756070137
1783338519938352000,5.07235205078125,-0.00918557122349739,-0.010933141224086285,-0.009404127486050129
1783338519948325000,5.0823251953125,-0.007449060678482056,-0.007343498524278402,-0.010941501706838608
1783338519958297900,5.0922978515625,-0.006488990969955921,-0.006208459381014109,-0.012763637118041515
1783338519968271000,5.10227099609375,-0.008889321237802505,-0.0041076503694057465,-0.011896754615008831
1783338519978244000,5.112244140625,-0.008065605536103249,-0.0027198772877454758,-0.011461061425507069
1783338519988217000,5.122217041015625,-0.005130081903189421,0.0016369603108614683,-0.010174442082643509
1783338519998190000,5.132190185546875,-0.003223258536309004,0.005934237036854029,-0.00867454893887043
1783338520008164000,5.1421640625,-0.002598999533802271,0.0068330317735672,-0.004911316093057394
1783338520018137000,5.15213720703125,-0.0010967100970447063,0.008860230445861816,-0.0021552112884819508
1783338520028110000,5.162110107421875,0.0017232965910807252,0.00446790037676692,0.0020614517852663994
1783338520038083000,5.1720830078125,0.0021850885823369026,0.0020361682400107384,0.0012396001257002354
1783338520048056000,5.18205615234375,0.0012134606949985027,-0.0012007150799036026,0.0025226189754903316
1783338520058029000,5.192029052734375,0.0012145258951932192,-0.004195705987513065,0.00042458088137209415
1783338520068002000,5.202001953125,0.0006602423964068294,-0.0035909973084926605,-0.0005136048421263695
1783338520077975000,5.21197509765625,-0.0018500530859455466,-0.006021131761372089,-0.0006797858513891697
1783338520087948000,5.221947998046875,-0.0023243622854351997,-0.009099213406443596,-0.0011120173148810863
1783338520097921000,5.231921142578125,-0.00217522494494915,-0.011877954937517643,-0.0018848665058612823
1783338520107894300,5.241894287109375,-0.0030442336574196815,-0.01223968155682087,-0.0004750702064484358
1783338520117867000,5.251866943359375,-0.0030242600478231907,-0.010378928855061531,-0.0000745309516787529
1783338520127841000,5.261841064453125,-0.005173899233341217,-0.006496187765151262,-0.0019429696258157492
1783338520137814000,5.27181396484375,-0.005090808495879173,-0.0027880026027560234,0.0005337698385119438
1783338520147787000,5.281787109375,-0.00411674939095974,-0.004538644105195999,-0.0017332867719233036
1783338520157760300,5.29176025390625,-0.004610233008861542,-0.003970324993133545,-0.0024930862709879875
1783338520167733200,5.301733154296875,-0.0033546783961355686,0.0001933816820383072,-0.002702051540836692
1783338520177706000,5.3117060546875,-0.002707263920456171,0.001353188417851925,-0.004606477916240692
1783338520187679000,5.321678955078125,-0.003445941489189863,0.0036604702472686768,-0.006228760350495577
1783338520197652200,5.33165234375,-0.0032669766806066036,0.0029776357114315033,-0.006110515911132097
1783338520207625200,5.341625244140625,-0.002778370399028063,0.0016317551489919424,-0.006110631860792637
1783338520217598200,5.35159814453125,-0.0028974139131605625,0.0038357870653271675,-0.007909064181149006
1783338520227571000,5.361571044921875,-0.002132264431566,0.0029922560788691044,-0.006059789098799229
1783338520237544000,5.3715439453125,-0.002941865473985672,0.004574439954012632,-0.004229664336889982
1783338520247517200,5.38151708984375,-0.002477620029821992,0.006678274367004633,-0.0025417753495275974
1783338520257491200,5.3914912109375,-0.001543116755783558,0.009578457102179527,0.00022285198792815208
1783338520267464200,5.401464111328125,-0.0013312739320099354,0.010701833292841911,-0.0008684992790222168
1783338520277437000,5.41143701171875,0.001192870200611651,0.010179320350289345,0.0010790703818202019
1783338520287410000,5.421409912109375,0.00002774165477603674,0.008179908618330956,0.002523464150726795
1783338520297383200,5.431383056640625,-0.00033498078119009733,0.00757457222789526,0.0022590123116970062
1783338520307356200,5.441356201171875,0.00031619437504559755,0.004581494256854057,0.0037618360947817564
1783338520317328600,5.45132861328125,-0.0004915422759950161,0.0013859672471880913,0.004012972116470337
1783338520327301600,5.461301513671875,0.0005419825902208686,0.0012562470510601997,0.0022974424064159393
1783338520337275000,5.47127490234375,0.0006887228228151798,-0.0017589838244020939,0.0026873289607465267
1783338520347247900,5.481247802734375,-0.0017042338149622083,-0.0005553136579692364,0.0007516513578593731
1783338520357220600,5.491220703125,-0.0020198184065520763,0.0008316603489220142,-0.0015466567128896713
1783338520367194600,5.501194580078125,-0.0037989541888237,0.003250663634389639,-0.0032209744676947594
1783338520377167600,5.511167724609375,-0.005506306886672974,0.006695995107293129,-0.002567967399954796
1783338520387140900,5.521140869140625,-0.0073737576603889465,0.010322462767362595,-0.0014247300568968058
1783338520397113900,5.53111376953125,-0.008677375502884388,0.015511099249124527,0.0017103430582210422
1783338520407086800,5.5410869140625,-0.00733982864767313,0.017606552690267563,0.0032028707209974527
1783338520417059600,5.5510595703125,-0.007324649021029472,0.014992925338447094,0.0037890325766056776
1783338520427032800,5.56103271484375,-0.007646933197975159,0.011141768656671047,0.003922132775187492
1783338520437005800,5.571005859375,-0.007241866551339626,0.008691927418112755,0.0035503555554896593
1783338520446978800,5.580978759765625,-0.00494497362524271,0.008693072944879532,0.003495112294331193
1783338520456951800,5.590951904296875,-0.002921503968536854,0.006260274909436703,0.005430697929114103
1783338520466924500,5.600924560546875,-0.000891642295755446,0.005698081571608782,0.003195773111656308
1783338520476898600,5.610898681640625,-0.00006153504364192486,0.0035174854565411806,0.0029547568410634995
1783338520486871800,5.620871826171875,0.0010957338381558657,-0.0007189260795712471,0.0023479959927499294
1783338520496844800,5.6308447265625,0.0013218361418694258,-0.001973274629563093,0.0005141433794051409
1783338520506817800,5.64081787109375,0.002209300408139825,-0.0017398204654455185,0.001207931898534298
1783338520516790800,5.650790771484375,0.0024415282532572746,-0.0022314400412142277,-0.00002058432437479496
1783338520526763800,5.660763671875,0.0025393308605998755,-0.001283769030123949,-0.0006533171981573105
1783338520536736800,5.67073681640625,0.003863987047225237,-0.00006510643288493156,-0.0007760887965559959
1783338520546709800,5.680709716796875,0.0016008664388209581,-0.0016789361834526062,-0.0018639890477061272
1783338520556682800,5.690682861328125,0.0005340041825547814,-0.002265364397317171,-0.002356939949095249
1783338520566655700,5.70065576171875,-0.0011403629323467612,-0.0006415052339434624,-0.003701200010254979
1783338520576629800,5.710629638671875,-0.002151298802345991,0.0009204386733472347,-0.003847940592095256
1783338520586602800,5.720602783203125,-0.0010952713200822473,0.0010692279320210218,-0.0042033568024635315
1783338520596575700,5.73057568359375,-0.002784514334052801,0.003408548654988408,-0.003518391866236925
1783338520606548700,5.740548828125,-0.0013271719217300415,0.004384091589599848,-0.004611214157193899
1783338520616521700,5.750521728515625,-0.0013426181394606829,0.004326300695538521,-0.004477789159864187
1783338520626494700,5.76049462890625,-0.002192961983382702,0.0051546357572078705,-0.0027172781992703676
1783338520636467700,5.7704677734375,0.0009146805969066918,0.0041016219183802605,-0.0048707108944654465
1783338520646440700,5.780440673828125,-0.00010618928354233503,0.0032961892429739237,-0.0020429196301847696
1783338520656413700,5.79041357421875,0.0018794635543599725,0.0031537101604044437,0.0013177234213799238
1783338520666387700,5.8003876953125,0.006331033073365688,0.0006578646134585142,0.0050577400252223015
1783338520676361000,5.81036083984375,0.007463675457984209,-0.0033211647532880306,0.00604204460978508
1783338520686333700,5.820333740234375,0.006460751406848431,-0.010774661786854267,0.007526999339461327
1783338520696306700,5.830306640625,0.005818663630634546,-0.012442599050700665,0.0051378775388002396
1783338520706279700,5.84027978515625,0.006008995696902275,-0.01519862376153469,0.005696493200957775
1783338520716253000,5.8502529296875,0.005610054358839989,-0.017933690920472145,0.002208817284554243
1783338520726226000,5.860225830078125,0.004926420748233795,-0.01634591445326805,-0.0004245161544531584
1783338520736198700,5.87019873046875,0.004636402707546949,-0.015164269134402275,-0.00374361383728683
1783338520746171600,5.880171630859375,0.0034144415985792875,-0.013217217288911343,-0.004708940163254738
1783338520756144600,5.89014453125,0.0020551641937345266,-0.009814497083425522,-0.00517499353736639
1783338520766118000,5.900117919921875,0.0012562767369672656,-0.008217639289796352,-0.006347443908452988
1783338520776092000,5.910091796875,0.00026052084285765886,-0.007385667413473129,-0.003175885882228613
1783338520786065000,5.92006494140625,0.0018162598134949803,-0.00901082344353199,-0.0032046018168330193
1783338520796037600,5.93003759765625,0.0014183835592120886,-0.01231687143445015,-0.002800334244966507
1783338520806010600,5.9400107421875,0.00005307921674102545,-0.016032882034778595,-0.0002852093894034624
1783338520815983900,5.94998388671875,0.001072271028533578,-0.018849441781640053,-0.0013840296305716038
1783338520825956900,5.959956787109375,0.0017347706016153097,-0.02008628658950329,-0.001961809117347002
1783338520835929600,5.9699296875,-0.00031639612279832363,-0.021140098571777344,-0.0036438615061342716
1783338520845902600,5.979902587890625,0.00041945057455450296,-0.020195234566926956,-0.0028974583838135004
1783338520855875800,5.989875732421875,0.001496699289418757,-0.01872223988175392,-0.00484103336930275
1783338520865848800,5.999848876953125,0.00033247191458940506,-0.018070219084620476,-0.003147703129798174
1783338520875822800,6.00982275390625,0.0019221126567572355,-0.016572989523410797,-0.004721098579466343
1783338520885795800,6.0197958984375,0.002342089544981718,-0.013784218579530716,-0.004149746149778366
1783338520895768600,6.0297685546875,0.002362862229347229,-0.014247076585888863,-0.0015678114723414183
1783338520905741600,6.039741455078125,0.001508767600171268,-0.013090532273054123,-0.00047519756481051445
1783338520915714800,6.04971484375,0.0026992005296051502,-0.015125453472137451,-0.00011806772090494633
1783338520925687800,6.059687744140625,0.0016536811599507928,-0.014416120015084743,-0.0017810491845011711
1783338520935660800,6.069660888671875,0.003877420676872134,-0.013527155853807926,-0.0018119416199624538
1783338520945633500,6.079633544921875,0.003960351925343275,-0.012566210702061653,-0.0008136969991028309
1783338520955606800,6.089606689453125,0.00545118935406208,-0.011025837622582912,-0.0000725393183529377
1783338520965579800,6.099579833984375,0.005857811775058508,-0.011470013298094273,0.0012744299601763487
1783338520975552800,6.109552734375,0.004034345503896475,-0.011262287385761738,-0.0005831248126924038
1783338520985526800,6.11952685546875,0.004278868902474642,-0.008936494588851929,0.00020139594562351704
1783338520995499800,6.129499755859375,0.004246378317475319,-0.0070211500860750675,-0.000297946622595191
1783338521005472800,6.13947265625,0.0060008009895682335,-0.006727347616106272,0.0012563439086079597
1783338521015445800,6.14944580078125,0.004480668809264898,-0.005463145207613707,0.003604985773563385
1783338521025418800,6.159418701171875,0.0050556715577840805,-0.005751049146056175,0.0016066879034042358
1783338521035391700,6.169391845703125,0.0036093087401241064,-0.005512695759534836,-0.0011651301756501198
1783338521045364700,6.17936474609375,0.0038638615515083075,-0.00152945751324296,-0.001371478196233511
1783338521055337700,6.189337646484375,0.00403829850256443,0.0021720698568969965,-0.0004934342578053474
1783338521065310700,6.199310791015625,0.004170326050370932,0.0017879258375614882,0.0006397066172212362
1783338521075283700,6.20928369140625,0.004893640987575054,0.0034508034586906433,0.0026778236497193575
1783338521085256700,6.219256591796875,0.0047351643443107605,0.0027143710758537054,0.005966213531792164
1783338521095230700,6.229230712890625,0.003548725973814726,0.0006440295837819576,0.006990998052060604
1783338521105204000,6.239203857421875,0.0013293311931192875,0.0014809796120971441,0.007910436950623989
1783338521115176700,6.2491767578125,0.0020348026882857084,0.002369676483795047,0.008206047117710114
1783338521125149700,6.259149658203125,0.0016415334539487958,0.002755930181592703,0.008879248984158039
1783338521135122700,6.269122802734375,0.0017208956414833665,0.0010531051084399223,0.007261910941451788
1783338521145096000,6.279095947265625,0.001485228887759149,0.00034166593104600906,0.007047769147902727
1783338521155068700,6.289068603515625,0.0032066963613033295,-0.0002831118181347847,0.005057589150965214
1783338521165041700,6.299041748046875,0.0037430566735565662,0.0031470395624637604,0.003227198263630271
1783338521175014700,6.3090146484375,0.0034114932641386986,0.009214519523084164,0.0032018981873989105
1783338521184988000,6.31898779296875,0.0036039825063198805,0.01052326150238514,0.002919093705713749
1783338521194961000,6.3289609375,0.0037414017133414745,0.012333146296441555,0.005342570133507252
1783338521204935000,6.338934814453125,0.0025207456201314926,0.010213566944003105,0.008554539643228054
1783338521214907600,6.34890771484375,0.0014645359478890896,0.008171720430254936,0.008426973596215248
1783338521224880600,6.358880615234375,0.001671360805630684,0.008597307838499546,0.008634237572550774
1783338521234853600,6.368853515625,-0.00135745236184448,0.008897712454199791,0.007178820203989744
1783338521244827000,6.378826904296875,-0.0013397879665717483,0.011223726905882359,0.002025348600000143
1783338521254800000,6.3887998046875,-0.004549962468445301,0.013217369094491005,0.0017222807509824634
1783338521264772600,6.398772705078125,-0.0060948701575398445,0.015102973207831383,-0.002938041929155588
1783338521274745600,6.40874560546875,-0.007474920712411404,0.020051127299666405,-0.0022341683506965637
1783338521284718800,6.41871875,-0.008317871019244194,0.025759318843483925,-0.000022818101570010185
1783338521294691800,6.42869189453125,-0.009246782399713993,0.033525895327329636,0.0014744109939783812
1783338521304665900,6.438665771484375,-0.007204053457826376,0.039033226668834686,0.008372912183403969
1783338521314638000,6.44863818359375,-0.008590761572122574,0.043426111340522766,0.01225979533046484
1783338521324611000,6.458611083984375,-0.0072653628885746,0.04621477425098419,0.01600715145468712
1783338521334584300,6.468584228515625,-0.00729305949062109,0.0481431670486927,0.018994154408574104
1783338521344557300,6.478557373046875,-0.005863805767148733,0.04704343155026436,0.021623725071549416
1783338521354530300,6.4885302734375,-0.006125061772763729,0.04988023266196251,0.02008681371808052
1783338521364503000,6.4985029296875,-0.007059808820486069,0.05315687507390976,0.018486764281988144
1783338521374476300,6.508476318359375,-0.006431302987039089,0.05759343504905701,0.01738474704325199
1783338521384449300,6.51844921875,-0.006665319204330444,0.06328488141298294,0.01638132706284523
1783338521394422300,6.52842236328125,-0.005228543654084206,0.06604897975921631,0.017981087788939476
1783338521404395300,6.538395263671875,-0.006123813800513744,0.06828408688306808,0.019107455387711525
1783338521414369300,6.548369384765625,-0.004959480836987495,0.06785638630390167,0.0209445022046566
1783338521424342300,6.55834228515625,-0.003676098771393299,0.07049566507339478,0.022014988586306572
1783338521434315300,6.568315185546875,-0.005314741749316454,0.0690104216337204,0.023171599954366684
1783338521444288300,6.578288330078125,-0.004338487982749939,0.07171802967786789,0.026181630790233612
1783338521454261200,6.58826123046875,-0.005454884842038155,0.0734482854604721,0.025431152433156967
1783338521464234200,6.598234130859375,-0.005010388791561127,0.07333055138587952,0.025750918313860893
1783338521474207200,6.608207275390625,-0.0066120135597884655,0.0768086388707161,0.023725051432847977
1783338521484180200,6.61818017578125,-0.00827998947352171,0.07972253113985062,0.02232140302658081
1783338521494153200,6.6281533203125,-0.009408903308212757,0.08272631466388702,0.020837223157286644
1783338521504126200,6.638126220703125,-0.007932960987091064,0.08445344120264053,0.019221298396587372
1783338521514099500,6.648099365234375,-0.007787285838276148,0.08454771339893341,0.018807709217071533
1783338521524073500,6.658073486328125,-0.008237360045313835,0.08681406825780869,0.019199728965759277
1783338521534046200,6.668046142578125,-0.008160127326846123,0.08582443743944168,0.019418906420469284
1783338521544019200,6.678019287109375,-0.005969407968223095,0.08547113090753555,0.022958409041166306
1783338521553992200,6.6879921875,-0.006648514419794083,0.08461492508649826,0.024952851235866547
1783338521563965400,6.69796533203125,-0.006384001579135656,0.0831398218870163,0.02440757304430008
1783338521573938200,6.707938232421875,-0.006133663933724165,0.08299973607063293,0.02814105898141861
1783338521583911200,6.7179111328125,-0.007086566183716059,0.082084521651268,0.02928517758846283
1783338521593884200,6.72788427734375,-0.005873496178537607,0.08138251304626465,0.029516072943806648
1783338521603857200,6.737857177734375,-0.006318981759250164,0.07966559380292892,0.03180040419101715
1783338521613830400,6.747830322265625,-0.008183460682630539,0.07825411856174469,0.03288404643535614
1783338521623803100,6.75780322265625,-0.010267217643558979,0.07867101579904556,0.03133564814925194
1783338521633777200,6.767777099609375,-0.01123208086937666,0.08207879215478897,0.03181954473257065
1783338521643750100,6.777750244140625,-0.012310313992202282,0.08458465337753296,0.0316421315073967
1783338521653723100,6.78772314453125,-0.013100474141538143,0.09057729691267014,0.031805116683244705
1783338521663696400,6.7976962890625,-0.01262938417494297,0.09111297130584717,0.03075292520225048
1783338521673669400,6.80766943359375,-0.01265708077698946,0.09199447929859161,0.029826944693922997
1783338521683642000,6.81764208984375,-0.012194429524242878,0.09015718847513199,0.028348762542009354
1783338521693615000,6.827614990234375,-0.014058375731110573,0.08795396238565445,0.028227854520082474
1783338521703588400,6.83758837890625,-0.014286478981375694,0.08924981951713562,0.026892349123954773
1783338521713561300,6.847561279296875,-0.012892314232885838,0.08494588732719421,0.026300327852368355
1783338521723534300,6.857534423828125,-0.010992947034537792,0.08345051854848862,0.025652913376688957
1783338521733507000,6.867507080078125,-0.010878697969019413,0.08119296282529831,0.024720007553696632
1783338521743481000,6.877481201171875,-0.008996501564979553,0.07980263978242874,0.02426896244287491
1783338521753454300,6.887454345703125,-0.00919064600020647,0.07752404361963272,0.025199204683303833
1783338521763427300,6.89742724609375,-0.007602008990943432,0.07397034764289856,0.023756707087159157
1783338521773400300,6.907400390625,-0.006584148854017258,0.06818756461143494,0.024115968495607376
1783338521783373300,6.917373291015625,-0.006409422494471073,0.06105364114046097,0.025072552263736725
1783338521793346000,6.927345947265625,-0.005796096753329039,0.053747259080410004,0.02600172907114029
1783338521803319300,6.9373193359375,-0.004999868106096983,0.04943590611219406,0.024947641417384148
1783338521813292300,6.947292236328125,-0.006364472210407257,0.04256575182080269,0.022477293387055397
1783338521823265300,6.957265380859375,-0.004856253042817116,0.03742178902029991,0.0210481695830822
1783338521833238300,6.96723828125,-0.004816038534045219,0.03320680558681488,0.020359477028250694
1783338521843211300,6.977211181640625,-0.005145445000380278,0.029035214334726334,0.019067715853452682
1783338521853185300,6.987185302734375,-0.006315105129033327,0.02866024151444435,0.018242932856082916
1783338521863158300,6.997158203125,-0.005137965548783541,0.024519985541701317,0.017763275653123856
1783338521873131300,7.00713134765625,-0.006890858523547649,0.02286270074546337,0.016694815829396248
1783338521883104300,7.017104248046875,-0.006625572685152292,0.02102595940232277,0.015450320206582546
1783338521893077200,7.0270771484375,-0.004816221073269844,0.021244337782263756,0.011449719779193401
1783338521903050200,7.03705029296875,-0.004923831671476364,0.01894356682896614,0.0048159705474972725
1783338521913023200,7.047023193359375,-0.004864709451794624,0.017098527401685715,-0.000626731663942337
1783338521922996200,7.056996337890625,-0.004042493179440498,0.014511164277791977,-0.004280553199350834
1783338521932969200,7.06696923828125,-0.006361041218042374,0.013479720801115036,-0.00988624058663845
1783338521942942200,7.076942138671875,-0.0050886245444417,0.01376285683363676,-0.012325754389166832
1783338521952916200,7.086916259765625,-0.0037759526167064905,0.015280592255294323,-0.011890326626598835
1783338521962889200,7.09688916015625,-0.0030022813007235527,0.012411460280418396,-0.011972642503678799
1783338521972862200,7.1068623046875,-0.0027831029146909714,0.012400541454553604,-0.008750749751925468
1783338521982835200,7.116835205078125,-0.0010853152489289641,0.010548470541834831,-0.007386702578514814
1783338521992808400,7.126808349609375,-0.0005614714464172721,0.008968150243163109,-0.004127259831875563
1783338522002781200,7.13678125,-0.00027197133749723434,0.005214403383433819,-0.0014908101875334978
1783338522012754200,7.146754150390625,-0.0011401616502553225,0.0037312889471650124,-0.0024506135378032923
1783338522022727200,7.15672705078125,0.0008165508625097573,0.0034940089099109173,-0.0010135613847523928
1783338522032700400,7.166700439453125,0.0013489167904481292,0.004430642817169428,-0.00002233288250863552
1783338522042673400,7.17667333984375,0.0013275654055178165,0.0014387988485395908,0.0016493807779625058
1783338522052646100,7.186646240234375,0.0031518307514488697,0.002498204354196787,0.0020709591917693615
1783338522062619100,7.196619140625,0.003046849276870489,0.0009510621894150972,0.0031412013340741396
1783338522072593200,7.20659326171875,0.005461270920932293,0.0024408346507698298,0.0030610403046011925
1783338522082566100,7.216566162109375,0.007296843454241753,0.004494185093790293,0.003334824927151203
1783338522092539400,7.226539306640625,0.008862782269716263,0.0072588128969073296,0.0014700794126838446
1783338522102512400,7.236512451171875,0.010553637519478798,0.007052660454064608,-0.0008954210206866264
1783338522112485000,7.246485107421875,0.01002952829003334,0.004938110709190369,-0.0016685365699231625
1783338522122458000,7.2564580078125,0.011057181283831596,0.003275205846875906,-0.003745674854144454
1783338522132431400,7.266431396484375,0.009777265600860119,0.0006314858328551054,-0.006466892547905445
1783338522142404400,7.276404296875,0.008739329874515533,-0.0020404504612088203,-0.007647402584552765
1783338522152377300,7.28637744140625,0.008277004584670067,-0.0016724015586078167,-0.008694823831319809
1783338522162350000,7.29635009765625,0.008395436219871044,-0.0034608091227710247,-0.009893999435007572
1783338522172324000,7.306323974609375,0.008955764584243298,-0.003883718978613615,-0.01060106884688139
1783338522182297300,7.31629736328125,0.009654573164880276,-0.007013555150479078,-0.012149592861533165
1783338522192270300,7.326270263671875,0.009970158338546753,-0.010524135082960129,-0.01036953553557396
1783338522202243300,7.336243408203125,0.009592769667506218,-0.012968719005584717,-0.010043112561106682
1783338522212216000,7.346216064453125,0.009646566584706306,-0.01744788885116577,-0.010581071488559246
1783338522222189300,7.356189208984375,0.009986978955566883,-0.020934738218784332,-0.009577985852956772
1783338522232162300,7.366162353515625,0.009600021876394749,-0.023438110947608948,-0.008871449157595634
1783338522242135300,7.37613525390625,0.008928703144192696,-0.02561965584754944,-0.008853305131196976
1783338522252108300,7.3861083984375,0.00811723805963993,-0.02899787202477455,-0.0071169245056807995
1783338522262081000,7.3960810546875,0.00697117717936635,-0.02962370403110981,-0.004918947815895081
1783338522272054300,7.40605419921875,0.0060430653393268585,-0.030737170949578285,-0.007432173006236553
1783338522282028300,7.4160283203125,0.004452415741980076,-0.028894327580928802,-0.006245757453143597
1783338522292001300,7.426001220703125,0.002841736190021038,-0.025101717561483383,-0.007794385775923729
1783338522301974300,7.435974365234375,0.00330703635700047,-0.02069706842303276,-0.006892419885843992
1783338522311947300,7.445947265625,-0.0005185945192351937,-0.01568632945418358,-0.006810660939663649
1783338522321920800,7.455920654296875,-0.0032042288221418858,-0.011955227702856064,-0.00774616003036499
1783338522331894000,7.46589404296875,-0.002031372394412756,-0.011022588238120079,-0.005818563513457775
1783338522341866800,7.47586669921875,-0.00415811687707901,-0.007705417461693287,-0.0043847402557730675
1783338522351839700,7.48583984375,-0.0037261515390127897,-0.0041125463321805,-0.0029495630878955126
1783338522361812700,7.495812744140625,-0.004355285316705704,-0.0025152545422315598,-0.0003768226597458124
1783338522371786000,7.505785888671875,-0.0020870710723102093,0.004514957778155804,0.0008985651656985283
1783338522381759000,7.515759033203125,-0.004036116413772106,0.007845827378332615,0.005084799602627754
1783338522391733000,7.52573291015625,-0.003111200872808695,0.008923076093196869,0.00696925213560462
1783338522401705700,7.535705810546875,-0.004700819030404091,0.011449242942035198,0.008420119062066078
1783338522411678700,7.5456787109375,-0.005063275340944529,0.014589376747608185,0.010917365550994873
1783338522421652000,7.55565185546875,-0.0013361703604459763,0.015218834392726421,0.012352034449577332
1783338522431625000,7.565625,-0.003935948014259338,0.019555259495973587,0.01324339397251606
1783338522441598000,7.575597900390625,-0.0016238671960309148,0.01889745332300663,0.014336829073727131
1783338522451570700,7.58557080078125,0.0006837619002908468,0.019656188786029816,0.012897923588752747
1783338522461543700,7.595543701171875,-0.0025976025499403477,0.0189723689109087,0.010696172714233398
1783338522471517000,7.605516845703125,-0.0005794590106233954,0.01915479451417923,0.005485431756824255
1783338522481490000,7.615489990234375,0.0013270140625536442,0.0191761814057827,0.003988087177276611
1783338522491463000,7.625462890625,0.0008407208952121437,0.02013518661260605,0.001835720264352858
1783338522501437000,7.63543701171875,0.001961439847946167,0.019083265215158463,-0.00017988705076277256
1783338522511409700,7.64540966796875,-0.00025617447681725025,0.017827050760388374,-0.005129106342792511
1783338522521383000,7.6553828125,-0.002200810704380274,0.017830604687333107,-0.0031773799564689398
1783338522531356000,7.66535595703125,-0.004328676499426365,0.016841240227222443,-0.0008750769775360823
1783338522541329000,7.675328857421875,-0.005731488578021526,0.01303889974951744,0.0009916257113218307
1783338522551301600,7.685301513671875,-0.010544619522988796,0.010276935994625092,0.004180228337645531
1783338522561275000,7.69527490234375,-0.00936096254736185,0.007064668461680412,0.006995073519647121
1783338522571247900,7.705247802734375,-0.009485065937042236,0.00283796526491642,0.007048869505524635
1783338522581220900,7.715220947265625,-0.010672965086996555,0.004350138828158379,0.007429632358253002
1783338522591193900,7.72519384765625,-0.010497462935745716,0.005215133540332317,0.003482294734567404
1783338522601166800,7.735166748046875,-0.01307644508779049,0.005007564555853605,0.002582655753940344
1783338522611140600,7.745140625,-0.00919595267623663,0.007356205955147743,-0.0013279300183057785
1783338522621113900,7.75511376953125,-0.008502143435180187,0.006242943461984396,-0.00337006407789886
1783338522631086800,7.7650869140625,-0.007151920348405838,0.00706426240503788,-0.003794305259361863
1783338522641059800,7.775059814453125,-0.008675099350512028,0.0026117577217519283,-0.004453554283827543
1783338522651032800,7.78503271484375,-0.006873470731079578,0.0015667334664613008,-0.005747052375227213
1783338522661005800,7.795005859375,-0.007196881342679262,-0.001586702186614275,-0.0077289072796702385
1783338522670978800,7.804978759765625,-0.007318055722862482,-0.004229356534779072,-0.007231961004436016
1783338522680951800,7.814951904296875,-0.009561031125485897,-0.005634733475744724,-0.009252374991774559
1783338522690924800,7.8249248046875,-0.008326921612024307,-0.0048427097499370575,-0.009885674342513084
1783338522700898000,7.83489794921875,-0.008490953594446182,-0.003142746165394783,-0.009647239930927753
1783338522710870800,7.844870849609375,-0.009667005389928818,0.000603788997977972,-0.009214742109179497
1783338522720844800,7.8548447265625,-0.008167257532477379,0.00029757944867014885,-0.009173184633255005
1783338522730817800,7.86481787109375,-0.008070052601397038,0.0022920207120478153,-0.009636308997869492
1783338522740790800,7.874790771484375,-0.010321956127882004,0.002280153799802065,-0.009377948939800262
1783338522750763800,7.884763671875,-0.009408758021891117,0.0005451044999063015,-0.008306292816996574
1783338522760737000,7.894737060546875,-0.010860185138881207,-0.0024861954152584076,-0.010216206312179565
1783338522770709800,7.904709716796875,-0.010239136405289173,-0.005991714540868998,-0.010413281619548798
1783338522780682800,7.914682861328125,-0.0105371018871665,-0.009749208576977253,-0.012416984885931015
1783338522790655700,7.92465576171875,-0.009600468911230564,-0.015142110176384449,-0.012300871312618256
1783338522800629000,7.93462890625,-0.01006791926920414,-0.01854175142943859,-0.01256455760449171
1783338522810602000,7.94460205078125,-0.00838400237262249,-0.02089092507958412,-0.012811432592570782
1783338522820574700,7.95457470703125,-0.007706181146204472,-0.02455245703458786,-0.014894073829054832
1783338522830548700,7.964548828125,-0.007611905224621296,-0.025141015648841858,-0.015985703095793724
1783338522840521700,7.974521728515625,-0.006614962127059698,-0.024884233251214027,-0.014021077193319798
1783338522850495000,7.984494873046875,-0.00671403156593442,-0.0250789113342762,-0.014616825617849827
1783338522860468000,7.994468017578125,-0.004650264047086239,-0.023738622665405273,-0.017161360010504723
1783338522870440700,8.004440673828125,-0.003179400460794568,-0.025445975363254547,-0.01888762041926384
1783338522880413700,8.01441357421875,-0.0011651769746094942,-0.028316855430603027,-0.022315584123134613
1783338522890387000,8.024386962890626,-0.0008884745184332132,-0.035824306309223175,-0.024256493896245956
1783338522900360000,8.03435986328125,0.0004610799951478839,-0.03939191251993179,-0.02844131924211979
1783338522910333000,8.0443330078125,-0.0014734402066096663,-0.038804419338703156,-0.029350521042943
1783338522920305700,8.0543056640625,-0.0021805560681968927,-0.03985295444726944,-0.02809745818376541
1783338522930278700,8.064278564453126,-0.0027587281074374914,-0.03773201256990433,-0.028780292719602585
1783338522940252700,8.074252685546876,-0.002155499067157507,-0.03589640557765961,-0.028235431760549545
1783338522950226000,8.084225830078125,-0.003225557040423155,-0.03573501855134964,-0.030112694948911667
1783338522960199000,8.094198974609375,-0.005308594089001417,-0.029487762600183487,-0.0329822413623333
1783338522970172000,8.104171875,-0.006728857755661011,-0.022628791630268097,-0.03751493990421295
1783338522980144600,8.11414453125,-0.005020999349653721,-0.023228518664836884,-0.03568841516971588
1783338522990118000,8.124117919921876,-0.0067216940224170685,-0.023482851684093475,-0.03666899353265762
1783338523000091000,8.1340908203125,-0.011124189011752605,-0.024765320122241974,-0.03712569922208786
1783338523010064000,8.14406396484375,-0.012362292967736721,-0.02130480855703354,-0.03636430203914642
1783338523020036900,8.154036865234374,-0.010876412503421307,-0.019039271399378777,-0.03398909792304039
1783338523030009900,8.164009765625,-0.012174969539046288,-0.018421949818730354,-0.029850546270608902
1783338523039982800,8.17398291015625,-0.012255944311618805,-0.016283143311738968,-0.027014466002583504
1783338523049956900,8.183956787109375,-0.011426369659602642,-0.017055194824934006,-0.02319709025323391
1783338523059929900,8.193929931640625,-0.014635029248893261,-0.016606369987130165,-0.018409108743071556
1783338523069902800,8.20390283203125,-0.011475721374154091,-0.013921638950705528,-0.015177628956735134
1783338523079875800,8.213875732421876,-0.011226696893572807,-0.012818754650652409,-0.013036366552114487
1783338523089848800,8.223848876953125,-0.01154387928545475,-0.010731635615229607,-0.01095191016793251
1783338523099821800,8.23382177734375,-0.010240590199828148,-0.009032033383846283,-0.007101917639374733
1783338523109794800,8.243794921875,-0.010221147909760475,-0.005223979242146015,-0.001759616658091545
1783338523119767800,8.253767822265624,-0.007753365207463503,-0.003868532832711935,0.003366471268236637
1783338523129740800,8.26374072265625,-0.004763966891914606,-0.0013923253864049911,0.008845925331115723
1783338523139713800,8.2737138671875,-0.0029411502182483673,0.0018218776676803827,0.012194200418889523
1783338523149686800,8.283686767578125,-0.0012734787305817008,0.0016394511330872774,0.01649174466729164
1783338523159660800,8.293660888671875,0.0036207290831953287,0.0032961699180305004,0.020817900076508522
1783338523169633800,8.3036337890625,0.0073094735853374004,0.006361201871186495,0.017596807330846786
1783338523179607000,8.31360693359375,0.006678407546132803,0.006407260429114103,0.014001736417412758
1783338523189579800,8.323579833984375,0.011376223526895046,0.0034663318656384945,0.0094149736687541
1783338523199552800,8.333552734375,0.00800036359578371,0.004178058356046677,0.0022780713625252247
1783338523209525800,8.34352587890625,0.0057358769699931145,0.0036832429468631744,-0.0030983181204646826
1783338523219498800,8.353498779296874,0.0012640607310459018,-0.0020827539265155792,-0.011052578687667847
1783338523229472000,8.363471923828126,-0.004457741044461727,-0.004338984377682209,-0.013032905757427216
1783338523239444700,8.37344482421875,-0.007741931825876236,-0.0024478044360876083,-0.014530051499605179
1783338523249417700,8.383417724609375,-0.014007017947733402,-0.006719781085848808,-0.019569817930459976
1783338523259390700,8.393390625,-0.018779665231704712,-0.009733058512210846,-0.020048493519425392
1783338523269364700,8.40336474609375,-0.02502903901040554,-0.007697605062276125,-0.02290979214012623
1783338523279338000,8.413337890625,-0.025844911113381386,-0.00619153305888176,-0.024420060217380524
1783338523289311000,8.42331103515625,-0.028955481946468353,-0.005027731880545616,-0.02332203835248947
1783338523299283700,8.43328369140625,-0.029605401679873466,-0.004566546995192766,-0.020494919270277023
1783338523309256700,8.443256591796874,-0.024469761177897453,-0.011822862550616264,-0.010910202749073505
1783338523319230000,8.45322998046875,-0.027329523116350174,-0.019674688577651978,-0.0031264545395970345
1783338523329203200,8.463203125,-0.030032899230718613,-0.02377302572131157,0.0007971809245646
1783338523339176200,8.47317626953125,-0.026931297034025192,-0.022092653438448906,0.006254112813621759
1783338523349149000,8.48314892578125,-0.024295033887028694,-0.021854035556316376,0.007056256756186485
1783338523359122000,8.493121826171874,-0.01913730800151825,-0.02511008270084858,0.0020928429439663887
1783338523369095200,8.50309521484375,-0.018192153424024582,-0.02468184567987919,-0.00037510856054723263
1783338523379069200,8.513069091796876,-0.015990765765309334,-0.02097385935485363,-0.0018640011548995972
1783338523389042200,8.523042236328125,-0.011321444995701313,-0.01760043390095234,-0.004905065055936575
1783338523399015200,8.53301513671875,-0.01029776781797409,-0.013206708244979382,-0.005511523224413395
1783338523408988000,8.54298779296875,-0.008460985496640205,-0.00621724221855402,-0.009521977975964546
1783338523418961200,8.552961181640624,-0.0024741997476667166,-0.006486488506197929,-0.007106490433216095
1783338523428934100,8.56293408203125,0.00234106183052063,-0.006078491918742657,-0.006756817921996117
1783338523438907100,8.5729072265625,0.004825253039598465,-0.005660197231918573,-0.004087425768375397
1783338523448880000,8.582880126953125,0.009216006845235825,-0.0015765060670673847,-0.001486050197854638
1783338523458853000,8.59285302734375,0.010629313997924328,-0.003965676762163639,-0.0031406742054969072
1783338523468826000,8.602826171875,0.010968068614602089,-0.0064469436183571815,-0.0038408192340284586
1783338523478799000,8.612799072265625,0.010027012787759304,-0.0069984071888029575,-0.00462369667366147
1783338523488773000,8.622773193359375,0.007481830194592476,-0.00880163349211216,-0.0061827111057937145
1783338523498746000,8.63274609375,0.008260566741228104,-0.012073636054992676,-0.004272318910807371
1783338523508718800,8.64271875,0.006457074545323849,-0.0157123114913702,-0.004895232152193785
1783338523518692000,8.652692138671876,0.004501963499933481,-0.02048914134502411,-0.0009733098559081554
1783338523528665000,8.6626650390625,0.004673470743000507,-0.02469613589346409,0.0037873568944633007
1783338523538638000,8.67263818359375,-0.0005194632103666663,-0.025794563814997673,0.0046591125428676605
1783338523548611000,8.682611083984375,-0.00034635758493095636,-0.027264626696705818,0.00760350376367569
1783338523558584000,8.692583984375,-0.002429272048175335,-0.02910560928285122,0.008185159415006638
1783338523568557000,8.70255712890625,-0.0029658987186849117,-0.02766324020922184,0.006055163219571114
1783338523578530000,8.712530029296875,-0.00393318198621273,-0.024894775822758675,0.007538567762821913
1783338523588503000,8.7225029296875,-0.005638403818011284,-0.020344765856862068,0.007541497237980366
1783338523598476300,8.732476318359375,-0.005869711749255657,-0.015449022874236107,0.007301824167370796
1783338523608450000,8.742449951171874,-0.006105667445808649,-0.011471325531601906,0.005028284154832363
1783338523618423000,8.752423095703126,-0.006289257202297449,-0.01025176141411066,0.00046012806706130505
1783338523628396000,8.76239599609375,-0.007645072881132364,-0.005981649272143841,-0.00467631034553051
1783338523638369000,8.772369140625,-0.009143269620835781,-0.0007009687833487988,-0.012185324914753437
1783338523648342000,8.782342041015625,-0.009505991823971272,0.003868483006954193,-0.018622716888785362
1783338523658315300,8.792315185546874,-0.010918859392404556,0.009176934137940407,-0.02263544127345085
1783338523668288000,8.8022880859375,-0.012941797263920307,0.015976518392562866,-0.02630074881017208
1783338523678261000,8.812260986328125,-0.01481227483600378,0.019454482942819595,-0.025359148159623146
1783338523688234000,8.82223388671875,-0.016194986179471016,0.021249718964099884,-0.023660318925976753
1783338523698207200,8.832207275390624,-0.017971938475966454,0.02356639690697193,-0.0202938262373209
1783338523708180200,8.84218017578125,-0.018230797722935677,0.02302044816315174,-0.015153125859797001
1783338523718154200,8.852154296875,-0.01757953315973282,0.023349672555923462,-0.009383642114698887
1783338523728127000,8.862126953125,-0.017014412209391594,0.02302716299891472,-0.0029164222069084644
1783338523738100000,8.872099853515625,-0.015552148222923279,0.01798090897500515,0.004362841602414846
1783338523748073200,8.8820732421875,-0.013158232904970646,0.011607698164880276,0.011588796973228455
1783338523758046200,8.892046142578126,-0.009332741610705853,0.005214656237512827,0.015792502090334892
1783338523768019200,8.902019287109376,-0.005088461562991142,-0.00033244211226701736,0.020249834284186363
1783338523777992000,8.911991943359375,-0.0044205826707184315,-0.005937556270509958,0.021275093778967857
1783338523787965200,8.921965087890625,-0.001579256379045546,-0.00821775384247303,0.020402375608682632
1783338523797938200,8.931938232421874,0.0018074855906888843,-0.0077008348889648914,0.020298246294260025
1783338523807911200,8.9419111328125,0.002232526196166873,-0.00700361980125308,0.018077969551086426
1783338523817884000,8.9518837890625,0.0020244771149009466,-0.006388367619365454,0.012393208220601082
1783338523827857000,8.96185693359375,-0.0018956959247589111,-0.0035403831861913204,0.008604861795902252
1783338523837831000,8.971830810546875,-0.004021575674414635,-0.0025570900179445744,-0.001831788569688797
1783338523847804200,8.98180419921875,-0.007211510557681322,0.0031370148062705994,-0.011049254797399044
1783338523857777200,8.991777099609376,-0.01006662379950285,0.00651898980140686,-0.021159807220101357
1783338523867750100,9.001750244140625,-0.012424853630363941,0.008049774914979935,-0.0293106772005558
1783338523877723000,9.011722900390625,-0.015279912389814854,0.0058893864043056965,-0.03261873871088028
1783338523887696100,9.021696044921875,-0.017604850232601166,0.002865899819880724,-0.03392741456627846
1783338523897669000,9.031669189453124,-0.019031072035431862,-0.0018283533863723278,-0.032745808362960815
1783338523907642000,9.04164208984375,-0.017912277951836586,-0.005849193781614304,-0.029726849868893623
1783338523917615000,9.051614990234375,-0.017833471298217773,-0.009281100705265999,-0.024936595931649208
1783338523927588000,9.061588134765625,-0.016325855627655983,-0.013266254216432571,-0.01940521039068699
1783338523937561000,9.07156103515625,-0.015268588438630104,-0.02196235954761505,-0.014528057537972927
1783338523947534000,9.0815341796875,-0.014167902991175652,-0.02971695363521576,-0.011403637938201427
1783338523957508000,9.091508056640626,-0.012950094416737556,-0.03011051006615162,-0.011231043376028538
1783338523967481000,9.101481201171875,-0.012652619741857052,-0.027265718206763268,-0.011838510632514954
1783338523977454000,9.1114541015625,-0.01200901810079813,-0.02359633520245552,-0.011464985087513924
1783338523987427000,9.121427001953125,-0.008238514885306358,-0.019399724900722504,-0.00987853854894638
1783338523997400000,9.131400146484374,-0.007929418236017227,-0.01666295900940895,-0.01273481547832489
1783338524007373000,9.141373046875,-0.005963739939033985,-0.012520146556198597,-0.01182561181485653
1783338524017346000,9.151345947265625,-0.0057349009439349174,-0.009797586128115654,-0.011053767055273056
1783338524027319300,9.1613193359375,-0.005469383671879768,-0.00365260848775506,-0.00920872949063778
1783338524037292000,9.1712919921875,-0.00638259993866086,0.0011529959738254547,-0.010127069428563118
1783338524047265000,9.18126513671875,-0.006059292238205671,0.0018305042758584023,-0.011774767190217972
1783338524057238000,9.191238037109375,-0.006268743425607681,0.00264023058116436,-0.013894282281398773
1783338524067212000,9.2012119140625,-0.006354496814310551,0.0028183958493173122,-0.014322785660624504
1783338524077185300,9.211185302734375,-0.006490284111350775,0.0063093313947319984,-0.01262578833848238
1783338524087158000,9.221157958984374,-0.007571528200060129,0.008840132504701614,-0.008953290060162544
1783338524097131000,9.231131103515626,-0.009461844339966774,0.009807039052248001,-0.006755810230970383
1783338524107104000,9.24110400390625,-0.010827779769897461,0.00997668132185936,-0.0023213806562125683
1783338524117077000,9.251076904296875,-0.008454958908259869,0.011075563728809357,-0.0010470361448824406
1783338524127050200,9.26105029296875,-0.011503213085234165,0.011341346427798271,0.00031863292679190636
1783338524137023000,9.27102294921875,-0.012128486298024654,0.01287892647087574,0.001213085139170289
1783338524146996000,9.280995849609376,-0.012504524551331997,0.013578537851572037,-0.000372560927644372
1783338524156969000,9.290968994140625,-0.013323638588190079,0.012473869137465954,-0.002772275358438492
1783338524166942200,9.300942138671875,-0.013189948163926601,0.012619278393685818,-0.005846627987921238
1783338524176915200,9.310915283203125,-0.013492828235030174,0.009733112528920174,-0.008716405369341373
1783338524186889200,9.32088916015625,-0.010781995952129364,0.00931925792247057,-0.009470080025494099
1783338524196861000,9.33086083984375,-0.009477823041379452,0.0058732833713293076,-0.011049890890717506
1783338524206834200,9.340834228515625,-0.008422412909567356,0.0034399530850350857,-0.011328990571200848
1783338524216807200,9.35080712890625,-0.006597577128559351,0.0031873565167188644,-0.009722941555082798
1783338524226781200,9.36078125,-0.006478534545749426,0.0030557962600141764,-0.009031584486365318
1783338524236754200,9.370754150390624,-0.0035669556818902493,0.0029296227730810642,-0.008441407233476639
1783338524246727000,9.380726806640626,-0.004374425858259201,0.002471026498824358,-0.007684269454330206
1783338524256700200,9.3907001953125,-0.002586015500128269,0.0029098140075802803,-0.006709250621497631
1783338524266673200,9.400673095703125,-0.0032661869190633297,-0.00038078799843788147,-0.0062469253316521645
1783338524276646100,9.410646240234374,-0.0020999042317271233,-0.0037865214981138706,-0.007389838807284832
1783338524286619100,9.420619140625,-0.0033249584957957268,-0.006867532152682543,-0.0061951447278261185
1783338524296592000,9.430591796875,-0.003471171483397484,-0.007871096953749657,-0.0063255345448851585
1783338524306565000,9.440565185546875,-0.0035492023453116417,-0.012024830095469952,-0.007382809184491634
1783338524316538000,9.4505380859375,-0.004603463225066662,-0.01315702311694622,-0.007101197727024555
1783338524326510600,9.460510498046874,-0.004478294402360916,-0.016207406297326088,-0.006514503620564938
1783338524336484600,9.470484619140626,-0.005482142791152,-0.016651609912514687,-0.006365563254803419
1783338524346457600,9.48045751953125,-0.007433440536260605,-0.01727372407913208,-0.0042518125846982
1783338524356430800,9.490430908203125,-0.005512054543942213,-0.015510894358158112,-0.004275895655155182
1783338524366403800,9.50040380859375,-0.00830704253166914,-0.013276766985654831,-0.00805412232875824
1783338524376376600,9.51037646484375,-0.007068914361298084,-0.01306435838341713,-0.009549777954816818
1783338524386349600,9.520349609375,-0.005409765522927046,-0.012429993599653244,-0.011209726333618164
1783338524396322800,9.53032275390625,-0.005391389597207308,-0.01084141805768013,-0.0111245047301054
1783338524406295800,9.5402958984375,-0.00662203598767519,-0.00867546908557415,-0.0095937205478549
1783338524416268800,9.550268798828125,-0.005621328949928284,-0.011384241282939911,-0.012871894985437393
1783338524426241500,9.560241455078126,-0.005773395299911499,-0.01444154977798462,-0.011158417910337448
1783338524436214800,9.57021484375,-0.008528272621333599,-0.015507866628468037,-0.012387396767735481
1783338524446187800,9.580187744140625,-0.006355399265885353,-0.018246926367282867,-0.013420704752206802
1783338524456160800,9.590160888671875,-0.006725022103637457,-0.019792739301919937,-0.015231411904096603
1783338524466134800,9.600134765625,-0.005932465195655823,-0.016667518764734268,-0.013907020911574364
1783338524476107500,9.610107421875,-0.0073061659932136536,-0.014791280031204224,-0.01318483054637909
1783338524486080800,9.620080810546876,-0.007343449629843235,-0.012436246499419212,-0.0164988674223423
1783338524496053800,9.6300537109375,-0.007935797795653343,-0.012657849118113518,-0.016699809581041336
1783338524506026800,9.64002685546875,-0.009569380432367325,-0.012515369802713394,-0.017940577119588852
1783338524515999700,9.649999755859374,-0.007658847142010927,-0.012445133179426193,-0.02150716260075569
1783338524525972500,9.659972412109376,-0.010286322794854641,-0.01729954406619072,-0.022382009774446487
1783338524535945700,9.66994580078125,-0.013608192093670368,-0.021424584090709686,-0.022707538679242134
1783338524545918700,9.679918701171875,-0.015341908670961857,-0.024738887324929237,-0.021387943997979164
1783338524555891700,9.6898916015625,-0.017337150871753693,-0.028048397973179817,-0.019527725875377655
1783338524565864700,9.69986474609375,-0.019743848592042923,-0.029739240184426308,-0.018726114183664322
1783338524575837700,9.709837646484376,-0.02206622064113617,-0.029546059668064117,-0.02114270254969597
1783338524585810700,9.719810791015625,-0.023595407605171204,-0.026160385459661484,-0.025139842182397842
1783338524595784700,9.72978466796875,-0.027573080733418465,-0.021457351744174957,-0.029796402901411057
1783338524605757700,9.7397578125,-0.02983117662370205,-0.011384211480617523,-0.03306756541132927
1783338524615730700,9.749730712890624,-0.02966461330652237,-0.001886078156530857,-0.036652058362960815
1783338524625704000,9.759703857421876,-0.028963670134544373,0.005905532278120518,-0.03734448179602623
1783338524635676700,9.7696767578125,-0.026813004165887833,0.010651299729943275,-0.036831486970186234
1783338524645649700,9.779649658203125,-0.023020396009087563,0.016432490199804306,-0.03415447473526001
1783338524655622700,9.78962255859375,-0.019471503794193268,0.019581004977226257,-0.028631513938307762
1783338524665595600,9.799595703125,-0.014845326542854309,0.018296029418706894,-0.022875089198350906
1783338524675569000,9.80956884765625,-0.011032376438379288,0.01538118626922369,-0.017675869166851044
1783338524685541600,9.819541748046875,-0.0068070050328969955,0.010743292048573494,-0.008942298591136932
1783338524695514600,9.8295146484375,-0.0014358448097482324,0.002053298056125641,0.0011263508349657059
1783338524705487600,9.839487548828124,0.0024313314352184534,-0.007379618473351002,0.009312908165156841
1783338524715461600,9.849461669921874,0.0018888515187427402,-0.014703759923577309,0.015786679461598396
1783338524725435000,9.859434814453126,0.004795159213244915,-0.016680624336004257,0.01858326606452465
1783338524735407600,9.86940771484375,0.006357260514050722,-0.01813025400042534,0.02142263762652874
1783338524745380600,9.879380615234375,0.004789457656443119,-0.01470676064491272,0.02105778455734253
1783338524755353600,9.889353515625,0.006532278843224049,-0.011012911796569824,0.020375700667500496
1783338524765326800,9.899326904296874,0.0059711504727602005,-0.008491430431604385,0.0171990804374218
1783338524775299800,9.9092998046875,0.006496646907180548,-0.001979526598006487,0.01219205092638731
1783338524785272600,9.9192724609375,0.0032928641885519028,-0.0017835181206464767,0.005895007401704788
1783338524795245600,9.92924560546875,0.0033498555421829224,0.003399259876459837,0.00043659214861691
1783338524805218800,9.93921875,-0.00023662333842366934,0.006579606793820858,-0.006769122555851936
1783338524815191800,9.94919189453125,-0.0005589330103248358,0.0068663181737065315,-0.011533284559845924
1783338524825164800,9.959164794921875,-0.0027248819824308157,0.006055651698261499,-0.015222826972603798
1783338524835137500,9.969137451171875,-0.0052058096043765545,0.002963118255138397,-0.01614861562848091
1783338524845111600,9.979111572265625,-0.006798645947128534,0.0001476244069635868,-0.017236782237887383
1783338524855084500,9.98908447265625,-0.006276031024754047,-0.0013006157241761684,-0.017024066299200058
1783338524865057800,9.999057861328126,-0.0051993150264024734,-0.003272952977567911,-0.015332693234086037
1783338524875030800,10.00903076171875,-0.007566224317997694,-0.005873722489923239,-0.014361880719661713
1783338524885003800,10.019003662109375,-0.007812300231307745,-0.006612749304622412,-0.012557055801153183
1783338524894976500,10.0289765625,-0.00852016918361187,-0.007900653406977654,-0.010077917948365211
1783338524904949800,10.03894970703125,-0.008495401591062546,-0.009284699335694313,-0.008793743327260017
1783338524914922800,10.0489228515625,-0.004951314069330692,-0.012075470760464668,-0.007533486932516098
1783338524924895700,10.058895751953125,-0.0066083334386348724,-0.013864848762750626,-0.005810155533254147
1783338524934868700,10.06886865234375,-0.00686549162492156,-0.015481669455766678,-0.0057345908135175705
1783338524944841700,10.078841796875,-0.005663340445607901,-0.01837332919239998,-0.002348115434870124
1783338524954814700,10.088814697265626,-0.00587272085249424,-0.020512770861387253,-0.0016334331594407558
1783338524964787700,10.09878759765625,-0.0059217228554189205,-0.019442979246377945,-0.0009141135960817337
1783338524974761700,10.10876171875,-0.008031320758163929,-0.019182944670319557,-0.0007329778745770454
1783338524984734700,10.118734619140625,-0.00813252106308937,-0.014606567099690437,-0.0023148953914642334
1783338524994707700,10.128707763671875,-0.007258235942572355,-0.009635750204324722,-0.0036921517457813025
1783338525004680700,10.1386806640625,-0.0066156149841845036,-0.0008073709905147552,-0.005438918247818947
1783338525014653700,10.14865380859375,-0.006644551642239094,0.00606971001252532,-0.005907094106078148
1783338525024626700,10.158626708984375,-0.0077953040599823,0.012686866335570812,-0.005362478084862232
1783338525034599700,10.168599609375,-0.005461770109832287,0.014322327449917793,-0.00618586502969265
1783338525044572700,10.17857275390625,-0.006649539805948734,0.012168096378445625,-0.006116889417171478
1783338525054545700,10.188545654296876,-0.00712067075073719,0.009722445160150528,-0.005837873090058565
1783338525064518700,10.1985185546875,-0.005996284075081348,0.007840389385819435,-0.005489797797054052
1783338525074491600,10.20849169921875,-0.0014238785952329636,0.0036892076022922993,-0.004594733938574791
1783338525084465000,10.21846484375,-0.004215670749545097,0.003018623683601618,-0.005053330212831497
1783338525094437600,10.228437744140624,-0.0039985692128539085,-0.000021696090698242188,-0.002868492854759097
1783338525104411600,10.23841162109375,-0.003079778514802456,-0.0021074842661619186,0.00043435930274426937
1783338525114384600,10.248384521484375,-0.002930144779384136,-0.0009853686206042767,0.0038443731609731913
1783338525124357600,10.258357666015625,-0.0024869944900274277,0.0005368944257497787,0.003984455484896898
1783338525134330600,10.26833056640625,-0.0011583076557144523,0.001342907315120101,0.003966776188462973
1783338525144303900,10.278303955078124,-0.0014983933651819825,0.003009513486176729,0.001477519515901804
1783338525154276600,10.288276611328126,-0.0026698079891502857,0.0024553791154175997,-0.0010872806888073683
1783338525164249600,10.29824951171875,-0.0027843238785862923,0.004534509032964706,-0.003240712685510516
1783338525174222600,10.30822265625,-0.0013707249891012907,0.004897946957498789,-0.002763101365417242
1783338525184195800,10.31819580078125,-0.000615718774497509,0.0024816610384732485,-0.00332209886983037
1783338525194168800,10.3281689453125,0.001748478738591075,0.0025272704660892487,-0.0055127255618572235
1783338525204141600,10.3381416015625,0.0026845799293369055,-0.0004727803170681,-0.002287370851263404
1783338525214114600,10.348114501953125,0.0012690676376223564,-0.0016099084168672562,0.0003291275352239609
1783338525224087800,10.358087890625,0.0026318072341382504,-0.003560141194611788,0.0025571282021701336
1783338525234061800,10.368061767578125,0.0022627534344792366,-0.0077639129012823105,0.004513092804700136
1783338525244034800,10.378034912109374,0.001489904010668397,-0.00866539217531681,0.004532267339527607
1783338525254007800,10.3880078125,0.0028167087584733963,-0.007124949712306261,0.004267365206032991
1783338525263980500,10.39798046875,0.0037610656581819057,-0.007432811427861452,0.0037331348285079002
1783338525273953800,10.407953857421875,0.0001612105406820774,-0.005722290836274624,0.0005326748359948397
1783338525283926800,10.4179267578125,-0.00039246072992682457,-0.003972328267991543,0.0006344076246023178
1783338525293899800,10.427899658203126,-0.0004250967176631093,-0.001230547670274973,-0.001634859712794423
1783338525303872800,10.437872802734375,-0.000005116220563650131,0.001099185785278678,-0.003546476596966386
1783338525313845800,10.447845703125,-0.00030318438075482845,0.0020658853463828564,-0.0025231631007045507
1783338525323819300,10.4578193359375,0.0010046940296888351,0.0038185114972293377,-0.0022507214453071356
1783338525333792300,10.467792236328124,0.000826915493234992,0.00019773421809077263,-0.0018493710085749626
1783338525343765200,10.47776513671875,0.0009259851067326963,0.0008414201438426971,0.0005019339732825756
1783338525353738200,10.48773828125,0.0007136709755286574,-0.002015647478401661,0.000021360348910093307
1783338525363712300,10.497712158203125,-0.0012970155803486705,-0.0025951513089239597,0.0009428139310330153
1783338525373685200,10.507685302734375,-0.0018833407666534185,-0.002714474219828844,-0.0002532815560698509
1783338525383658200,10.517658203125,-0.0008119510021060705,-0.0023355064913630486,-0.0018290739972144365
1783338525393631200,10.52763134765625,-0.0023850449360907078,-0.0013009938411414623,0.00026886281557381153
1783338525403604200,10.537604248046875,-0.001537627074867487,-0.0017460077069699764,-0.0036161565221846104
1783338525413577200,10.5475771484375,-0.003490528091788292,-0.00016292743384838104,-0.0030297571793198586
1783338525423550200,10.55755029296875,-0.0013845001813024282,0.0005009989254176617,-0.003181557636708021
1783338525433523200,10.567523193359374,-0.0018931095255538821,0.0007406261283904314,-0.0023924836423248053
1783338525443496200,10.57749609375,-0.0020723403431475163,0.0016085503157228231,-0.002476639812812209
1783338525453469200,10.58746923828125,0.0005385198164731264,-0.0015699188224971294,-0.0011979863047599792
1783338525463442400,10.5974423828125,-0.0010093094315379858,-0.003324409481137991,-0.00037054228596389294
1783338525473415200,10.607415283203125,-0.0002253596903756261,-0.0028950232081115246,0.0009284329134970903
1783338525483388200,10.61738818359375,-0.0010360259329900146,-0.0026249787770211697,0.0014461514074355364
1783338525493361200,10.627361083984376,-0.002083483152091503,-0.00010150717571377754,0.005216225050389767
1783338525503335200,10.637335205078125,-0.002374566625803709,0.001716898987069726,0.0043957047164440155
1783338525513308200,10.64730810546875,-0.002360423095524311,0.0016985819675028324,0.003254012670367956
1783338525523281200,10.65728125,-0.0012336396612226963,0.003883705474436283,0.0022257661912590265
1783338525533254100,10.667254150390624,-0.002207817044109106,0.0053948648273944855,0.0022951671853661537
1783338525543227100,10.67722705078125,-0.0011023386614397168,0.006630038842558861,-0.0008380420040339231
1783338525553200000,10.6872001953125,-0.0023021891247481108,0.007482081651687622,-0.0009579209145158529
1783338525563173400,10.69717333984375,-0.0024380104150623083,0.007742539048194885,-0.0022008183877915144
1783338525573146000,10.70714599609375,0.0005272137932479382,0.0075707933865487576,-0.003911226987838745
1783338525583119000,10.717119140625,-0.0010507091647014022,0.004538784269243479,-0.001867783721536398
1783338525593092000,10.727092041015625,-0.0009948145598173141,0.0028740721754729748,0.0014093676581978798
1783338525603065300,10.7370654296875,-0.0011788387782871723,-0.00008283555507659912,0.002127355895936489
1783338525613038300,10.747038330078125,-0.0009233071468770504,-0.0021236599422991276,0.0037546122912317514
1783338525623011000,10.757010986328124,0.0010716668330132961,-0.0024206023663282394,0.0022224958520382643
1783338525632984000,10.766984130859376,0.0016313178930431604,-0.0011020149104297161,0.0023143868893384933
1783338525642958000,10.7769580078125,0.002021737163886428,0.00020666234195232391,0.0028566066175699234
1783338525652931300,10.786931396484375,0.0012721179518848658,0.0018687690608203411,0.004390460439026356
1783338525662904300,10.796904296875,0.0033882656134665012,0.004993455950170755,0.001808259403333068
1783338525672877300,10.806877197265624,0.002074279822409153,0.003304016776382923,0.0031303344294428825
1783338525682850000,10.81685009765625,0.0013552263844758272,0.00030982494354248047,0.0018165971850976348
1783338525692823300,10.8268232421875,0.002671551425009966,-0.0017394013702869415,0.000905605498701334
1783338525702796300,10.83679638671875,-0.0001743026077747345,-0.006634823512285948,-0.0004190509207546711
1783338525712769300,10.846769287109375,-0.0010946332477033138,-0.00814311858266592,-0.0023465382400900126
1783338525722742300,10.8567421875,-0.0030102450400590897,-0.011643311008810997,-0.0046493737027049065
1783338525732715000,10.866715087890626,-0.001653105253353715,-0.011332071386277676,-0.003491590730845928
1783338525742688300,10.876688232421875,-0.007183691952377558,-0.012180288322269917,-0.0033871945925056934
1783338525752661200,10.8866611328125,-0.007706022821366787,-0.012881678529083729,-0.004932207986712456
1783338525762634200,10.89663427734375,-0.010051468387246132,-0.009246463887393475,-0.004440588876605034
1783338525772607200,10.906607177734376,-0.009051874279975891,-0.005373361054807901,-0.0027754914481192827
1783338525782581000,10.9165810546875,-0.00871604960411787,-0.0010140324011445045,-0.0059134941548109055
1783338525792554200,10.92655419921875,-0.008634297177195549,0.00211936142295599,-0.0063922228291630745
1783338525802527200,10.93652734375,-0.008361324667930603,0.0016290734056383371,-0.008687867783010006
1783338525812500200,10.946500244140625,-0.006378525868058205,0.0002923598513007164,-0.010887447744607925
1783338525822473200,10.95647314453125,-0.006119666621088982,0.0007823812775313854,-0.014050483703613281
1783338525832446200,10.9664462890625,-0.005241981241852045,0.0013160803355276585,-0.012971911579370499
1783338525842419200,10.976419189453125,-0.003958071116358042,0.0008183354511857033,-0.012953268364071846
1783338525852392200,10.98639208984375,-0.002638709731400013,0.000511776190251112,-0.0068925791420042515
1783338525862365200,10.996365234375,-0.0005076482193544507,-0.003727975767105818,-0.0027223345823585987
1783338525872338200,11.006338134765626,0.0005564164603129029,-0.003705295268446207,0.0009069561492651701
1783338525882311200,11.016311279296875,-0.000186871737241745,-0.003657624591141939,0.0059898653998970985
1783338525892284200,11.0262841796875,0.001542627695016563,-0.005102965515106916,0.008891436271369457
1783338525902257200,11.036257080078125,-0.0006576759042218328,-0.005324540194123983,0.010638203471899033
1783338525912231200,11.046231201171874,-0.00089242123067379,-0.006810374557971954,0.009833384305238724
1783338525922204200,11.0562041015625,-0.002124399645254016,-0.005630061030387878,0.008411789312958717
1783338525932177400,11.066177490234375,-0.0051455749198794365,-0.0027050264179706573,0.004216928966343403
1783338525942150100,11.076150146484375,-0.0059067062102258205,0.0037914884742349386,0.0011614845134317875
1783338525952123100,11.086123046875,-0.007559215184301138,0.007527300156652927,-0.003764380468055606
1783338525962096000,11.09609619140625,-0.007439107168465853,0.01280355453491211,-0.005478125065565109
1783338525972069400,11.1060693359375,-0.006978902034461498,0.016949022188782692,-0.006477419286966324
1783338525982042400,11.11604248046875,-0.00554425735026598,0.019924571737647057,-0.008241496980190277
1783338525992015000,11.12601513671875,-0.005507455673068762,0.019995983690023422,-0.008483096025884151
1783338526001988000,11.135988037109374,-0.0037319259718060493,0.01703907549381256,-0.0034651681780815125
1783338526011961300,11.14596142578125,-0.004915985278785229,0.01095634326338768,-0.0013831907417625189
1783338526021934300,11.155934326171876,-0.0023196698166429996,0.005236140452325344,0.0015952885150909424
1783338526031907300,11.1659072265625,-0.001769854687154293,-0.0017473394982516766,0.0020068418234586716
1783338526041880000,11.175880126953125,-0.0024356450885534286,-0.0057490053586661816,-0.001023569144308567
1783338526051853000,11.18585302734375,-0.004192858934402466,-0.008990633301436901,0.0007262544240802526
1783338526061827000,11.1958271484375,-0.004431477747857571,-0.009497166611254215,-0.0011342300567775965
1783338526071800300,11.20580029296875,-0.004694435279816389,-0.008195932023227215,-0.0019296463578939438
1783338526081773300,11.215773193359375,-0.003922384697943926,-0.006366873160004616,-0.0036689569242298603
1783338526091746000,11.22574609375,-0.0035893945023417473,-0.00440182164311409,-0.005297175608575344
1783338526101719000,11.235718994140624,-0.004532952327281237,-0.002446528524160385,-0.004226052667945623
1783338526111692300,11.2456923828125,-0.001977478386834264,-0.0006882147863507271,-0.00589509354904294
1783338526121665300,11.255665283203125,0.00006197032053023577,-0.0008725053630769253,-0.006226391065865755
1783338526131638300,11.26563818359375,0.0008245792705565691,-0.0018765735439956188,-0.005916411057114601
1783338526141611000,11.275611083984375,-0.00039355061016976833,-0.0037043006159365177,-0.006252768449485302
1783338526151584300,11.285584228515624,0.0005839166697114706,-0.003509532194584608,-0.0038925297558307648
1783338526161557200,11.29555712890625,-0.0006177016766741872,-0.007088554557412863,-0.0034714839421212673
1783338526171530200,11.3055302734375,-0.0010596150532364845,-0.008312449790537357,-0.004460619296878576
1783338526181503200,11.315503173828125,-0.0015805293805897236,-0.008476234041154385,-0.0061967340297997
1783338526191476200,11.325476318359375,-0.0032398346811532974,-0.009145420044660568,-0.006519154645502567
1783338526201449200,11.33544921875,-0.003562876023352146,-0.008177893236279488,-0.00581474881619215
1783338526211423200,11.34542333984375,-0.0055450135841965675,-0.005568047985434532,-0.006260847672820091
1783338526221396200,11.355396240234375,-0.006034769117832184,-0.0016920831985771656,-0.007105335593223572
1783338526231369200,11.365369140625,-0.0062383124604821205,-0.002981419675052166,-0.007381194271147251
1783338526241342200,11.37534228515625,-0.007969100028276443,-0.004300749860703945,-0.008065094240009785
1783338526251315200,11.385315185546874,-0.006277048960328102,-0.005786051973700523,-0.008378027938306332
1783338526261288200,11.3952880859375,-0.0061747832223773,-0.004423844628036022,-0.00719238817691803
1783338526271261200,11.40526123046875,-0.0035072914324700832,-0.004037666600197554,-0.005869533866643906
1783338526281234200,11.415234130859375,-0.00604235427454114,-0.003637659829109907,-0.005457809194922447
1783338526291207400,11.42520751953125,-0.0054770177230238914,-0.005273056216537952,-0.004285200033336878
1783338526301180200,11.43518017578125,-0.0032926928251981735,-0.005064530298113823,-0.0012697027996182442
1783338526311153200,11.445153076171875,-0.003095533698797226,-0.0052406503818929195,-0.0045194439589977264
1783338526321126000,11.4551259765625,-0.0021367953158915043,-0.005969823803752661,-0.0033034442458301783
1783338526331099000,11.465098876953125,-0.0043139373883605,-0.004521943628787994,-0.004924669861793518
1783338526341072000,11.47507177734375,-0.0034673181362450123,-0.002057188656181097,-0.002895340556278825
1783338526351046000,11.4850458984375,-0.0021979808807373047,-0.001806126907467842,-0.003533242968842387
1783338526361019000,11.495018798828125,-0.0035868193954229355,-0.00010117096826434135,-0.0018517228309065104
1783338526370991900,11.504991943359375,-0.0035561304539442062,0.00018851784989237785,-0.00026990100741386414
1783338526380965000,11.514965087890625,-0.0029137758538126945,0.0030008158646523952,0.0020403913222253323
1783338526390937900,11.524937744140624,-0.004396005999296904,0.0053736069239676,0.0036338744685053825
1783338526400910800,11.534910888671876,-0.004753135610371828,0.005736595951020718,0.004526033531874418
1783338526410883800,11.5448837890625,-0.006239196751266718,0.00697116507217288,0.004286532755941153
1783338526420856800,11.55485693359375,-0.005832532420754433,0.007494476158171892,0.0036883868742734194
1783338526430829800,11.564829833984374,-0.004470292944461107,0.00543022807687521,-0.0006649489514529705
1783338526440802800,11.574802734375,-0.004539534915238619,0.0034522986970841885,-0.00308363139629364
1783338526450775800,11.58477587890625,-0.0044274660758674145,0.0008205228950828314,-0.007287647575139999
1783338526460748800,11.594748779296875,-0.004054090473800898,0.0025401259772479534,-0.00804638210684061
1783338526470722000,11.60472216796875,-0.004885426722466946,0.001247413456439972,-0.011874213814735413
1783338526480694800,11.61469482421875,-0.0033312055747956038,0.0014239810407161713,-0.011791123077273369
1783338526490667800,11.624667724609376,-0.0020088786259293556,-0.0012198947370052338,-0.012329314835369587
1783338526500641800,11.634641845703126,-0.0008573277154937387,-0.0026569366455078125,-0.008056273683905602
1783338526510614800,11.64461474609375,-0.00017186289187520742,-0.004930710885673761,-0.009221539832651615
1783338526520588000,11.654588134765625,0.002620195271447301,-0.006113154347985983,-0.006203912198543549
1783338526530561000,11.66456103515625,0.0016869710525497794,-0.006803660187870264,-0.002581461565569043
1783338526540533800,11.67453369140625,0.0013668590690940619,-0.00953686237335205,0.0003512115217745304
1783338526550506800,11.6845068359375,0.0030074105598032475,-0.01202491857111454,0.004706101026386023
1783338526560480000,11.69447998046875,0.0024851644411683083,-0.019016515463590622,0.005311171058565378
1783338526570453000,11.704452880859375,0.0018130686366930604,-0.022861408069729805,0.0043586730025708675
1783338526580426000,11.714426025390624,0.0012830996420234442,-0.0262026097625494,0.004106737673282623
1783338526590398700,11.724398681640626,0.0004354581469669938,-0.02377518080174923,0.000705937622115016
1783338526600371700,11.734371826171875,-0.0028450237587094307,-0.02389156073331833,-0.003301320830360055
1783338526610345000,11.744344970703125,-0.002004547044634819,-0.021085992455482483,-0.005177333950996399
1783338526620318000,11.75431787109375,-0.003367286641150713,-0.017011091113090515,-0.008830391801893711
1783338526630291000,11.764291015625,-0.0019409582018852234,-0.015735730528831482,-0.011913673020899296
1783338526640263700,11.774263671875,-0.0013183110859245062,-0.013592950068414211,-0.01142231933772564
1783338526650237000,11.78423681640625,-0.003474707715213299,-0.010251093655824661,-0.010636584833264351
1783338526660210000,11.7942099609375,-0.002330081071704626,-0.008649468421936035,-0.008385416120290756
1783338526670184000,11.804183837890625,-0.005191448610275984,-0.007814676500856876,-0.0071220435202121735
1783338526680157000,11.814156982421874,-0.004448959603905678,-0.008969423361122608,-0.002815179293975234
1783338526690129700,11.824129638671875,-0.00628188531845808,-0.009022282436490059,-0.00007488159462809563
1783338526700103000,11.83410302734375,-0.006231818348169327,-0.01035066694021225,-0.00038940110243856907
1783338526710076000,11.844075927734375,-0.005901653785258532,-0.011618440970778465,0.0005834200419485569
1783338526720049000,11.854048828125,-0.00590937677770853,-0.009976867586374283,0.0006710379384458065
1783338526730022000,11.86402197265625,-0.004780901130288839,-0.007552152965217829,-0.0005624997429549694
1783338526739995000,11.873994873046875,-0.006164679303765297,-0.001975227613002062,0.0002905104774981737
1783338526749968000,11.8839677734375,-0.003687604796141386,0.0021469208877533674,0.00047296867705881596
1783338526759940900,11.89394091796875,-0.0023035602644085884,0.008523860014975071,0.00017948821187019348
1783338526769913900,11.903913818359374,0.00032967061270028353,0.006841555237770081,0.00192206387873739
1783338526779886800,11.913886962890626,0.0011094441870227456,0.005642333999276161,0.003644063835963607
1783338526789859800,11.92385986328125,0.0041245464235544205,0.0034224526025354862,0.006014106795191765
1783338526799832800,11.933832763671875,0.003183917608112097,-0.0011762939393520355,0.005335266701877117
1783338526809805800,11.943805908203124,0.0053237504325807095,-0.004058438818901777,0.005298166070133448
