time,seconds_elapsed,z,y,x
1783338514920655600,0.054655517578125,-0.1294887512922287,-0.31719473004341125,-0.020244818180799484
1783338514930628900,0.06462890625,-0.12740935385227203,-0.4804720878601074,-0.045876409858465195
1783338514940601900,0.074601806640625,-0.08465895801782608,-0.6984922885894775,-0.05680442601442337
1783338514950574800,0.084574951171875,-0.015679894015192986,-0.8893716931343079,-0.05916718393564224
1783338514960547800,0.0945478515625,0.017069531604647636,-0.9713262319564819,-0.08141815662384033
1783338514970520800,0.104520751953125,0.012723252177238464,-0.9883800148963928,-0.11257927864789963
1783338514980493800,0.114493896484375,-0.020415792241692543,-0.9906330704689026,-0.17042367160320282
1783338514990466800,0.124466796875,-0.024233967065811157,-0.8420560956001282,-0.3062262535095215
1783338515000439800,0.134439697265625,0.020385965704917908,-0.5020407438278198,-0.5440161824226379
1783338515010413000,0.1444130859375,0.050277017056941986,-0.13035720586776733,-0.8157275915145874
1783338515020385800,0.1543857421875,0.04698535054922104,0.054315969347953796,-1.063887596130371
1783338515030358800,0.16435888671875,0.05625049024820328,0.06540749967098236,-1.2541680335998535
1783338515040331800,0.174331787109375,0.11116860061883926,0.1448514610528946,-1.3452370166778564
1783338515050304800,0.1843046875,0.17073498666286469,0.4327583611011505,-1.3217263221740723
1783338515060278000,0.194278076171875,0.21973901987075806,0.8029934167861938,-1.2339437007904053
1783338515070250800,0.204250732421875,0.24704387784004211,1.0754880905151367,-1.0971571207046509
1783338515080223700,0.2142236328125,0.2934926152229309,1.1449475288391113,-0.8837292790412903
1783338515090196700,0.22419677734375,0.32188349962234497,1.1787492036819458,-0.5999292135238647
1783338515100170000,0.234169921875,0.38699406385421753,1.095574975013733,-0.23805516958236694
1783338515110143000,0.24414306640625,0.48417040705680847,0.943612277507782,0.15722183883190155
1783338515120115700,0.25411572265625,0.5852845311164856,0.8694587349891663,0.5627323389053345
1783338515130088700,0.264088623046875,0.6099408268928528,0.8845313787460327,0.9233613610267639
1783338515140062000,0.27406201171875,0.4731752872467041,0.9725393056869507,1.2123513221740723
1783338515150035000,0.284034912109375,0.0881735309958458,1.146405577659607,1.3934966325759888
1783338515160007700,0.294007568359375,-0.3794671595096588,1.0153988599777222,1.4996960163116455
1783338515169980700,0.303980712890625,-0.7051427364349365,0.6504145264625549,1.5856151580810547
1783338515179954000,0.313953857421875,-0.8039774298667908,-0.26231470704078674,1.8470596075057983
1783338515189927000,0.323927001953125,-0.8984679579734802,-1.0502040386199951,2.1478090286254883
1783338515199900000,0.33389990234375,-0.9904511570930481,-1.6123831272125244,2.4343161582946777
1783338515209872600,0.34387255859375,-1.1680006980895996,-1.9814627170562744,2.531463146209717
1783338515219846000,0.353845947265625,-1.4254196882247925,-2.143209934234619,2.28234601020813
1783338515229819000,0.36381884765625,-1.5831043720245361,-2.92505145072937,2.3222169876098633
1783338515239791900,0.3737919921875,-1.7592543363571167,-3.670369863510132,2.4818508625030518
1783338515249764900,0.383764892578125,-1.8970718383789062,-3.6340413093566895,2.261443614959717
1783338515259737900,0.39373779296875,-1.9207631349563599,-2.2303214073181152,1.369186520576477
1783338515269710800,0.4037109375,-1.7915399074554443,-0.8261836767196655,0.4567582309246063
1783338515279683800,0.413683837890625,-1.4709951877593994,0.2628486752510071,-0.22434815764427185
1783338515289656800,0.42365673828125,-1.206365942955017,1.112013816833496,-0.796780526638031
1783338515299629800,0.4336298828125,-0.9061235189437866,1.348103642463684,-1.3272403478622437
1783338515309602300,0.443602294921875,-0.4516758322715759,1.455479621887207,-1.7325774431228638
1783338515319575300,0.4535751953125,-0.1698761135339737,1.452054500579834,-1.897146463394165
1783338515329548300,0.46354833984375,-0.07472030818462372,1.1722636222839355,-1.8515208959579468
1783338515339521500,0.473521484375,-0.15381565690040588,0.796187698841095,-1.6952146291732788
1783338515349494300,0.483494384765625,-0.2339259386062622,0.4443364441394806,-1.4340802431106567
1783338515359467300,0.49346728515625,-0.23248650133609772,0.04890522360801697,-1.0580960512161255
1783338515369440300,0.503440185546875,-0.17032752931118011,-0.3627861738204956,-0.6152003407478333
1783338515379413200,0.513413330078125,-0.12485484778881073,-0.8926279544830322,-0.13894936442375183
1783338515389386500,0.523386474609375,-0.027607392519712448,-1.507274866104126,0.41263309121131897
1783338515399359200,0.533359130859375,-0.0052027516067028046,-1.9132919311523438,0.7096144556999207
1783338515409332200,0.543332275390625,-0.1080191433429718,-2.3871514797210693,0.7620571255683899
1783338515419305200,0.55330517578125,-0.24565503001213074,-2.725987434387207,0.6708793044090271
1783338515429278500,0.563278564453125,-0.31426870822906494,-2.8053925037384033,0.5023291707038879
1783338515439251500,0.57325146484375,-0.19936104118824005,-2.8193297386169434,0.271523654460907
1783338515449225500,0.5832255859375,0.12176451832056046,-2.955418825149536,0.029258819296956062
1783338515459198200,0.5931982421875,0.5136902332305908,-3.18237566947937,-0.15714168548583984
1783338515469171200,0.603171142578125,0.775425136089325,-3.2865421772003174,-0.2567788064479828
1783338515479144400,0.61314453125,0.8339095115661621,-3.2694828510284424,-0.34660109877586365
1783338515489117400,0.623117431640625,0.6880063414573669,-3.1619930267333984,-0.4084705710411072
1783338515499090400,0.63309033203125,0.432468056678772,-2.988098382949829,-0.4503980576992035
1783338515509063200,0.643063232421875,0.12926238775253296,-2.698395013809204,-0.47271695733070374
1783338515519036400,0.653036376953125,-0.1597079038619995,-2.407153606414795,-0.5061268210411072
1783338515529009400,0.663009521484375,-0.3033390939235687,-2.1823670864105225,-0.5742542147636414
1783338515538982400,0.672982421875,-0.23668524622917175,-2.006486654281616,-0.6490512490272522
1783338515548955400,0.682955322265625,-0.011321896687150002,-1.9480631351470947,-0.7534596920013428
1783338515558928100,0.69292822265625,0.22713008522987366,-1.8322197198867798,-0.8392744660377502
1783338515568901400,0.7029013671875,0.3941076099872589,-1.6567485332489014,-0.9561920166015625
1783338515578874400,0.712874267578125,0.44867953658103943,-1.4241533279418945,-1.071213722229004
1783338515588847400,0.722847412109375,0.5410973429679871,-1.3461112976074219,-1.1886351108551025
1783338515598820400,0.7328203125,0.8373103737831116,-1.4215199947357178,-1.237762689590454
1783338515608793300,0.74279345703125,1.2837001085281372,-1.6045995950698853,-1.1829841136932373
1783338515618766300,0.752766357421875,1.6699378490447998,-1.8559433221817017,-0.9666954874992371
1783338515628739300,0.7627392578125,1.794464349746704,-2.305544137954712,-0.6049399375915527
1783338515638712300,0.77271240234375,1.7667738199234009,-3.1619679927825928,-0.2851395905017853
1783338515648685300,0.782685302734375,1.784454584121704,-4.281899452209473,-0.0162988118827343
1783338515658658300,0.792658203125,1.884381890296936,-5.354977607727051,0.29500100016593933
1783338515668631300,0.80263134765625,2.070543050765991,-6.37630033493042,0.6567475199699402
1783338515678604300,0.812604248046875,2.357316493988037,-7.302145957946777,1.0080286264419556
1783338515688577500,0.82257763671875,2.7642273902893066,-8.084092140197754,1.2993913888931274
1783338515698550300,0.83255029296875,3.2743167877197266,-8.60632610321045,1.5197008848190308
1783338515708523300,0.842523193359375,3.7419593334198,-8.767095565795898,1.713580846786499
1783338515718496300,0.852496337890625,4.078437805175781,-8.507421493530273,1.8855185508728027
1783338515728469200,0.86246923828125,4.277840614318848,-7.927669048309326,1.9957572221755981
1783338515738442500,0.8724423828125,4.417009353637695,-7.159219741821289,2.0578927993774414
1783338515748415200,0.882415283203125,4.618238925933838,-6.363733291625977,2.1094858646392822
1783338515758388200,0.89238818359375,4.886679649353027,-5.530889511108398,2.1453654766082764
1783338515768361200,0.902361328125,5.023255825042725,-4.616046905517578,2.1840646266937256
1783338515778334500,0.91233447265625,5.032285690307617,-3.8423173427581787,2.2187259197235107
1783338515788307500,0.922307373046875,4.870995998382568,-3.3935601711273193,2.2414631843566895
1783338515798280200,0.9322802734375,4.612406253814697,-3.274522066116333,2.2614147663116455
1783338515808253200,0.942253173828125,4.381302356719971,-3.206611156463623,2.296880006790161
1783338515818226400,0.952226318359375,4.253206253051758,-3.0111560821533203,2.36776065826416
1783338515828199400,0.962199462890625,4.224714756011963,-2.716052293777466,2.4700536727905273
1783338515838172400,0.97217236328125,4.259451389312744,-2.3671884536743164,2.610408067703247
1783338515848145200,0.982145263671875,4.285464286804199,-2.0210671424865723,2.7630960941314697
1783338515858119200,0.992119140625,4.083232402801514,-1.7868646383285522,2.9086639881134033
1783338515868092400,1.002092529296875,3.660478353500366,-1.6762945652008057,3.0402088165283203
1783338515878065400,1.0120654296875,3.2247989177703857,-1.661793828010559,3.116819381713867
1783338515888038400,1.022038330078125,2.843820810317993,-1.6671193838119507,3.1101441383361816
1783338515898011400,1.032011474609375,2.5524168014526367,-1.580344557762146,3.0074076652526855
1783338515907984400,1.041984375,2.2402005195617676,-1.3109897375106812,2.7736129760742188
1783338515917957400,1.051957275390625,1.9705890417099,-0.8812373280525208,2.3620641231536865
1783338515927930400,1.061930419921875,1.6700658798217773,-0.21764683723449707,1.832815170288086
1783338515937903400,1.0719033203125,1.3409178256988525,0.5365310907363892,1.3004391193389893
1783338515947876000,1.0818759765625,0.9603241682052612,1.0641762018203735,0.903927206993103
1783338515957849300,1.091849365234375,0.5110068321228027,1.2586957216262817,0.7366253137588501
1783338515967822300,1.101822265625,0.04735180363059044,1.147939920425415,0.7324255108833313
1783338515977795300,1.11179541015625,-0.38474634289741516,0.891160786151886,0.7209600210189819
1783338515987768300,1.121768310546875,-0.7263481616973877,0.6300216317176819,0.6387341618537903
1783338515997741300,1.1317412109375,-0.9687514901161194,0.3712630271911621,0.5282039046287537
1783338516007714300,1.14171435546875,-1.0900819301605225,0.03321973979473114,0.44027137756347656
1783338516017687300,1.151687255859375,-0.9532193541526794,-0.06776413321495056,-0.038533009588718414
1783338516027660300,1.161660400390625,-0.5450766086578369,-0.023327959701418877,-0.8157552480697632
1783338516037633500,1.171633544921875,-0.12808233499526978,-0.1677999198436737,-1.2132512331008911
1783338516047606300,1.181606201171875,0.19874344766139984,-0.662592351436615,-1.1880534887313843
1783338516057579300,1.191579345703125,0.40389448404312134,-1.3787435293197632,-0.9249632358551025
1783338516067552300,1.20155224609375,0.48562315106391907,-1.9230281114578247,-0.6876633167266846
1783338516077525500,1.211525390625,0.5109162926673889,-2.1438076496124268,-0.5947626829147339
1783338516087498500,1.22149853515625,0.5024487376213074,-2.1564419269561768,-0.5739660859107971
1783338516097471200,1.23147119140625,0.45032456517219543,-2.120795965194702,-0.47988271713256836
1783338516107444200,1.2414443359375,0.3945657014846802,-2.182229518890381,-0.27585580945014954
1783338516117417200,1.251417236328125,0.3111456334590912,-2.301642894744873,-0.04598746448755264
1783338516127390500,1.261390380859375,0.21818558871746063,-2.2505574226379395,0.08026261627674103
1783338516137363500,1.271363525390625,0.12631292641162872,-1.8354377746582031,0.0874885693192482
1783338516147336200,1.281336181640625,0.06498299539089203,-1.1932599544525146,0.10738477855920792
1783338516157309200,1.29130908203125,-0.03848773613572121,-0.5911812782287598,0.1350419670343399
1783338516167283200,1.301283203125,-0.15197674930095673,-0.15522074699401855,0.1897187978029251
1783338516177256400,1.31125634765625,-0.2548922002315521,-0.06848239153623581,0.41310980916023254
1783338516187229400,1.3212294921875,-0.26378077268600464,-0.07637520134449005,0.6053546071052551
1783338516197202400,1.331202392578125,-0.1357186883687973,0.010884338989853859,0.7168992757797241
1783338516207175200,1.341175048828125,-0.010583136230707169,0.16112950444221497,0.6649316549301147
1783338516217148400,1.3511484375,0.044808484613895416,0.28496888279914856,0.5309962630271912
1783338516227121400,1.361121337890625,0.08502914011478424,0.3010072410106659,0.43022382259368896
1783338516237094400,1.371094482421875,0.10445583611726761,0.362302303314209,0.30805903673171997
1783338516247067400,1.3810673828125,0.12298478186130524,0.47234809398651123,0.16678819060325623
1783338516257040400,1.391040283203125,0.140151247382164,0.582873523235321,0.03274542838335037
1783338516267013400,1.401013427734375,0.1301249861717224,0.7163245677947998,-0.09576433897018433
1783338516276986400,1.410986328125,0.08314069360494614,0.9428676962852478,-0.2268933355808258
1783338516286959400,1.42095947265625,0.018881812691688538,1.2480515241622925,-0.4319263696670532
1783338516296932000,1.43093212890625,-0.05645075812935829,1.4020259380340576,-0.6034448742866516
1783338516306905300,1.4409052734375,-0.19107487797737122,1.5075452327728271,-0.7129026651382446
1783338516316878800,1.45087890625,-0.41434285044670105,1.5945322513580322,-0.8584870100021362
1783338516326851800,1.460851806640625,-0.604826807975769,1.6304370164871216,-1.0000665187835693
1783338516336824800,1.470824951171875,-0.7123731970787048,1.4473614692687988,-0.9711430072784424
1783338516346797800,1.4807978515625,-0.8410142660140991,1.2165074348449707,-0.8945238590240479
1783338516356770800,1.490770751953125,-1.0169775485992432,1.0311511754989624,-0.8972285389900208
1783338516366743800,1.500743896484375,-1.1671303510665894,0.6887112855911255,-0.7548748850822449
1783338516376716800,1.510716796875,-1.1034048795700073,0.24392478168010712,-0.4631599187850952
1783338516386689800,1.520689697265625,-0.9693759679794312,-0.2950984835624695,-0.13727769255638123
1783338516396663000,1.5306630859375,-0.7946036458015442,-0.9332368969917297,0.17807413637638092
1783338516406635800,1.5406357421875,-0.6116082668304443,-1.5473746061325073,0.46267256140708923
1783338516416609800,1.55060986328125,-0.4019967019557953,-1.871302604675293,0.5602691769599915
1783338516426582800,1.560582763671875,-0.20458057522773743,-1.8359318971633911,0.39589008688926697
1783338516436555800,1.5705556640625,-0.07039826363325119,-1.578640341758728,0.015992281958460808
1783338516446529000,1.580529052734375,0.05329597741365433,-1.2819863557815552,-0.4947705864906311
1783338516456501800,1.590501708984375,0.12992124259471893,-0.9840244054794312,-0.8877689838409424
1783338516466474800,1.600474853515625,0.12989434599876404,-0.7300438284873962,-1.048225998878479
1783338516476447700,1.61044775390625,0.1041109561920166,-0.48792919516563416,-1.0399055480957031
1783338516486421000,1.6204208984375,0.08362991362810135,-0.21527422964572906,-0.9828667640686035
1783338516496394000,1.63039404296875,0.05872510001063347,0.12406682223081589,-0.9654065370559692
1783338516506366700,1.64036669921875,0.05788540467619896,0.5492026805877686,-1.0237857103347778
1783338516516339700,1.650339599609375,0.12839765846729279,1.0255564451217651,-1.0830644369125366
1783338516526312700,1.660312744140625,0.2994421124458313,1.457960844039917,-1.1337521076202393
1783338516536286000,1.670285888671875,0.41500386595726013,1.4155471324920654,-1.1945286989212036
1783338516546259000,1.680259033203125,0.5285453200340271,1.3578369617462158,-1.2088215351104736
1783338516556231700,1.690231689453125,0.7981842756271362,1.606425166130066,-1.2249233722686768
1783338516566204700,1.70020458984375,1.0596214532852173,2.0431838035583496,-1.1610215902328491
1783338516576178000,1.710177978515625,1.1116734743118286,2.0132648944854736,-1.0305551290512085
1783338516586151000,1.72015087890625,1.0540392398834229,1.7074748277664185,-0.8534576296806335
1783338516596124000,1.7301240234375,1.0797970294952393,1.1924519538879395,-0.630465567111969
1783338516606096600,1.7400966796875,1.101935863494873,0.5166545510292053,-0.4912743866443634
1783338516616070000,1.75006982421875,1.1586511135101318,-0.0772886648774147,-0.3537825644016266
1783338516626044000,1.7600439453125,1.2618688344955444,-0.36082395911216736,-0.13743509352207184
1783338516636017000,1.770016845703125,1.4497407674789429,-0.31160181760787964,0.1296490728855133
1783338516645990000,1.779989990234375,1.6518563032150269,-0.13778503239154816,0.40013808012008667
1783338516655963000,1.789962890625,1.8780311346054077,-0.0888635590672493,0.6852284073829651
1783338516665936000,1.799935791015625,2.061936378479004,-0.09219197928905487,1.0474835634231567
1783338516675908900,1.809908935546875,2.16727614402771,-0.08079098910093307,1.3640860319137573
1783338516685881900,1.8198818359375,2.19250226020813,-0.07282920181751251,1.5660247802734375
1783338516695854800,1.829854736328125,2.1529293060302734,-0.035226162523031235,1.659544825553894
1783338516705827800,1.839827880859375,2.0409717559814453,-0.08990565687417984,1.6475361585617065
1783338516715800800,1.84980078125,1.7166051864624023,-0.3131491243839264,1.4750710725784302
1783338516725773800,1.85977392578125,1.3143634796142578,-0.6011899709701538,1.1087594032287598
1783338516735746800,1.869746826171875,0.9312661290168762,-0.6053889989852905,0.7064327597618103
1783338516745719800,1.8797197265625,0.6345543265342712,-0.23567964136600494,0.4176558256149292
1783338516755692800,1.88969287109375,0.4240386188030243,0.18874728679656982,0.1752791404724121
1783338516765665800,1.899665771484375,0.3181699812412262,0.4588562548160553,-0.03136537969112396
1783338516775638800,1.909638671875,0.30142322182655334,0.5370115041732788,-0.1742871105670929
1783338516785611800,1.91961181640625,0.3713860809803009,0.5115892291069031,-0.22202295064926147
1783338516795585000,1.9295849609375,0.4831160604953766,0.40144675970077515,-0.15867246687412262
1783338516805557800,1.939557861328125,0.6403229832649231,0.1961740404367447,-0.015077752992510796
1783338516815530800,1.94953076171875,0.8394027948379517,0.006069077644497156,0.13698288798332214
1783338516825504800,1.9595048828125,1.0952271223068237,-0.087718665599823,0.2664439380168915
1783338516835477800,1.969477783203125,1.4129502773284912,-0.14486823976039886,0.34552571177482605
1783338516845450800,1.97945068359375,1.7866969108581543,-0.20990556478500366,0.383746862411499
1783338516855424000,1.989424072265625,2.2030229568481445,-0.3331984579563141,0.37170830368995667
1783338516865396700,1.999396728515625,2.688373565673828,-0.44430795311927795,0.33726751804351807
1783338516875369700,2.00936962890625,3.212092876434326,-0.47163623571395874,0.29203158617019653
1783338516885342700,2.0193427734375,3.735997438430786,-0.3993567228317261,0.25751543045043945
1783338516895316000,2.02931591796875,4.186460018157959,-0.2756795287132263,0.25266900658607483
1783338516905289000,2.0392890625,4.506914138793945,0.04438583925366402,0.23358212411403656
1783338516915261700,2.04926171875,4.657186508178711,0.5875705480575562,0.16774798929691315
1783338516925234700,2.059234619140625,4.739866733551025,0.9899401068687439,0.11439954489469528
1783338516935208000,2.0692080078125,4.791920185089111,1.148108720779419,0.10371734201908112
1783338516945181000,2.079180908203125,4.8348870277404785,1.122309923171997,0.11376304924488068
1783338516955154000,2.08915380859375,4.876532554626465,0.9252612590789795,0.16739138960838318
1783338516965126700,2.099126708984375,4.923007011413574,0.4521975517272949,0.30922308564186096
1783338516975100000,2.109099853515625,4.942501068115234,-0.0950266495347023,0.4906482696533203
1783338516985073000,2.119072998046875,4.8987812995910645,-0.6926109790802002,0.7252919673919678
1783338516995046000,2.1290458984375,4.778922080993652,-0.8250241279602051,0.8502171039581299
1783338517005019000,2.139018798828125,4.575691223144531,-1.0887316465377808,0.8950338363647461
1783338517014993000,2.148992919921875,4.212856769561768,-1.4402577877044678,0.7998088002204895
1783338517024966000,2.1589658203125,3.695131778717041,-1.5823379755020142,0.559782087802887
1783338517034939000,2.16893896484375,3.0719103813171387,-1.7443913221359253,0.2802838683128357
1783338517044911900,2.178911865234375,2.4884860515594482,-2.059528112411499,0.2172742635011673
1783338517054884900,2.188884765625,1.9964946508407593,-1.761031985282898,-0.2879319190979004
1783338517064857600,2.198857666015625,2.0649521350860596,-0.4021375775337219,-1.4139324426651
1783338517074830800,2.208830810546875,2.039656162261963,0.11000586301088333,-1.1759538650512695
1783338517084803800,2.218803955078125,1.5307106971740723,-0.24692776799201965,-0.17958228290081024
1783338517094776800,2.22877685546875,0.8170117139816284,-0.8679503202438354,0.8934566974639893
1783338517104749800,2.238749755859375,0.3767606019973755,-1.2005878686904907,1.591113567352295
1783338517114722800,2.248722900390625,0.13935309648513794,-1.4414244890213013,1.8638739585876465
1783338517124695800,2.25869580078125,-0.027694744989275932,-1.680842638015747,1.8497227430343628
1783338517134668800,2.268668701171875,-0.17377498745918274,-1.853753924369812,1.6837154626846313
1783338517144641800,2.278641845703125,-0.3031931519508362,-1.7872098684310913,1.3880736827850342
1783338517154615000,2.288614990234375,-0.35715174674987793,-1.3578400611877441,0.9175849556922913
1783338517164587800,2.298587890625,-0.26934704184532166,-0.5795877575874329,0.3467864394187927
1783338517174561800,2.308561767578125,-0.13899384438991547,0.28773778676986694,-0.1846737116575241
1783338517184534800,2.31853466796875,-0.08020029962062836,0.9231491088867188,-0.540286660194397
1783338517194507800,2.3285078125,-0.0886467769742012,1.2489749193191528,-0.7350971698760986
1783338517204480800,2.338480712890625,-0.09008008986711502,1.3778494596481323,-0.838934063911438
1783338517214454000,2.3484541015625,0.019653329625725746,1.3059161901474,-0.8683984875679016
1783338517224426800,2.3584267578125,0.24002698063850403,0.9630453586578369,-0.8314639329910278
1783338517234399700,2.368399658203125,0.3853205144405365,0.3953697085380554,-0.7535417079925537
1783338517244372700,2.378372802734375,0.36705708503723145,-0.21491390466690063,-0.659305214881897
1783338517254346000,2.388345947265625,0.2428688406944275,-0.6800576448440552,-0.5528269410133362
1783338517264319000,2.398319091796875,0.13492532074451447,-0.9466285705566406,-0.4320763051509857
1783338517274291700,2.408291748046875,0.07159349322319031,-1.0248839855194092,-0.31628260016441345
1783338517284264700,2.4182646484375,-0.004836833104491234,-0.9146336317062378,-0.2298925817012787
1783338517294238000,2.428238037109375,-0.09581947326660156,-0.5991870164871216,-0.17611163854599
1783338517304211000,2.4382109375,-0.13140623271465302,-0.19033372402191162,-0.12901124358177185
1783338517314184000,2.448183837890625,-0.15684367716312408,0.1635598987340927,-0.08775968104600906
1783338517324156700,2.45815673828125,-0.2660615146160126,0.45791855454444885,-0.04952600598335266
1783338517334130700,2.468130615234375,-0.28129106760025024,0.6870484352111816,0.03792687505483627
1783338517344104000,2.47810400390625,-0.20426791906356812,0.7622374296188354,0.13378016650676727
1783338517354077000,2.488076904296875,-0.13720712065696716,0.6655905246734619,0.19997623562812805
1783338517364050000,2.4980498046875,-0.11092305183410645,0.46624094247817993,0.2500508427619934
1783338517374022700,2.508022705078125,-0.0956740602850914,0.23669110238552094,0.28254595398902893
1783338517383995600,2.51799560546875,-0.07417409867048264,0.03039146214723587,0.28549325466156006
1783338517393969000,2.527968994140625,-0.05042935162782669,-0.12273603677749634,0.2530999183654785
1783338517403942000,2.53794189453125,-0.020748421549797058,-0.19350820779800415,0.18914303183555603
1783338517413915000,2.547914794921875,0.018003500998020172,-0.1791021078824997,0.0997561514377594
1783338517423887600,2.5578876953125,0.05624942481517792,-0.11265384405851364,0.00307595101185143
1783338517433860900,2.56786083984375,0.07208511233329773,-0.033783264458179474,-0.08445096760988235
1783338517443833900,2.577833740234375,0.07330776751041412,0.029757630079984665,-0.13831660151481628
1783338517453806800,2.587806884765625,0.07069201022386551,0.07523909211158752,-0.1587475687265396
1783338517463779800,2.59777978515625,0.06321971863508224,0.11239791661500931,-0.15419623255729675
1783338517473752800,2.6077529296875,0.05759618431329727,0.13890622556209564,-0.1335064023733139
1783338517483726800,2.617726806640625,0.04646790027618408,0.16033507883548737,-0.10312984883785248
1783338517493699800,2.627699951171875,0.03404878079891205,0.16907131671905518,-0.06872233748435974
1783338517503672800,2.6376728515625,0.019423499703407288,0.17077679932117462,-0.03573828935623169
1783338517513645800,2.647645751953125,0.005464806687086821,0.1629875898361206,-0.0067657604813575745
1783338517523618800,2.657618896484375,-0.011021492071449757,0.156607985496521,0.02046213112771511
1783338517533591800,2.667591796875,-0.025618543848395348,0.15754595398902893,0.03898255154490471
1783338517543564800,2.677564697265625,-0.038591332733631134,0.1731741726398468,0.05353566259145737
1783338517553537800,2.687537841796875,-0.050033871084451675,0.19327226281166077,0.06413557380437851
1783338517563510800,2.6975107421875,-0.05236440524458885,0.20912125706672668,0.07772648334503174
1783338517573484000,2.707484130859375,-0.05215774476528168,0.21698957681655884,0.09809700399637222
1783338517583456800,2.717456787109375,-0.041306693106889725,0.21164993941783905,0.12101643532514572
1783338517593429800,2.7274296875,-0.03127856180071831,0.19561398029327393,0.14339764416217804
1783338517603402800,2.73740283203125,-0.018429873511195183,0.16797542572021484,0.16651254892349243
1783338517613376000,2.7473759765625,-0.008322378620505333,0.13890968263149261,0.18002410233020782
1783338517623350000,2.75735009765625,0.006911169271916151,0.11045966297388077,0.1855272501707077
1783338517633322800,2.76732275390625,0.020250143483281136,0.08166529983282089,0.1803428828716278
1783338517643295700,2.777295654296875,0.03488554432988167,0.053636595606803894,0.16246454417705536
1783338517653268700,2.787268798828125,0.04394349083304405,0.021751102060079575,0.1359357237815857
1783338517663242000,2.797241943359375,0.05041603744029999,-0.008438758552074432,0.09518004208803177
1783338517673215000,2.807215087890625,0.05101524665951729,-0.040098950266838074,0.056289903819561005
1783338517683187700,2.817187744140625,0.046425823122262955,-0.06371719390153885,0.014701448380947113
1783338517693160700,2.82716064453125,0.04289420321583748,-0.08372312784194946,-0.02690058946609497
1783338517703133700,2.8371337890625,0.03305142745375633,-0.10042567551136017,-0.0632077306509018
1783338517713107000,2.84710693359375,0.029448436573147774,-0.11612500995397568,-0.09234324842691422
1783338517723080000,2.857079833984375,0.02804601565003395,-0.13396339118480682,-0.11031079292297363
1783338517733052700,2.867052734375,0.024592960253357887,-0.15047073364257812,-0.11989204585552216
1783338517743025700,2.877025634765625,0.019642677158117294,-0.16842123866081238,-0.11632980406284332
1783338517752999000,2.8869990234375,0.014788000844419003,-0.18538689613342285,-0.11336091160774231
1783338517762972000,2.896971923828125,0.013378123752772808,-0.20313847064971924,-0.10962236672639847
1783338517772946000,2.90694580078125,0.011725098825991154,-0.22224052250385284,-0.10963542014360428
1783338517782919000,2.9169189453125,0.010901649482548237,-0.23889407515525818,-0.11160562187433243
1783338517792891600,2.9268916015625,0.012152270413935184,-0.2570613622665405,-0.11260031163692474
1783338517802865000,2.936864990234375,0.01122389268130064,-0.26466575264930725,-0.11043675988912582
1783338517812838000,2.946837890625,0.010187922976911068,-0.2666862905025482,-0.10282517969608307
1783338517822811000,2.956810791015625,0.010838266462087631,-0.2584289014339447,-0.09217040985822678
1783338517832784000,2.966783935546875,0.011180216446518898,-0.2429676353931427,-0.07839254289865494
1783338517842756900,2.9767568359375,0.008042746223509312,-0.2213321179151535,-0.06518512964248657
1783338517852729900,2.986729736328125,0.009632653556764126,-0.19753357768058777,-0.05228397622704506
1783338517862702800,2.996702880859375,0.013584784232079983,-0.17337071895599365,-0.03750716149806976
1783338517872675800,3.00667578125,0.017670607194304466,-0.14684537053108215,-0.03074273280799389
1783338517882648800,3.01664892578125,0.029446039348840714,-0.1256045252084732,-0.023427294567227364
1783338517892621800,3.026621826171875,0.042099516838788986,-0.10885164886713028,-0.022115422412753105
1783338517902595800,3.036595947265625,0.044675592333078384,-0.08819030970335007,-0.023734623566269875
1783338517912568800,3.04656884765625,0.04808417335152626,-0.06876920908689499,-0.02082591876387596
1783338517922541800,3.056541748046875,0.05650428682565689,-0.04662369564175606,-0.013413543812930584
1783338517932514800,3.066514892578125,0.05566912144422531,-0.023505592718720436,-0.005091697443276644
1783338517942487800,3.07648779296875,0.04682796075940132,0.00506985979154706,-0.0017086841398850083
1783338517952460800,3.086460693359375,0.04159777611494064,0.03359631076455116,0.00205276464112103
1783338517962433800,3.096433837890625,0.039675772190093994,0.057793792337179184,0.005730589851737022
1783338517972406800,3.10640673828125,0.033005885779857635,0.07046884298324585,0.008735435083508492
1783338517982380000,3.116380126953125,0.02468164451420307,0.07274078577756882,0.013636183924973011
1783338517992352800,3.126352783203125,0.01278530340641737,0.06798996776342392,0.01954706944525242
1783338518002325800,3.13632568359375,0.0031989889685064554,0.060442306101322174,0.027113642543554306
1783338518012298800,3.146298828125,-0.0031587753910571337,0.04753263294696808,0.0350237637758255
1783338518022271700,3.156271728515625,-0.012297945097088814,0.03333931416273117,0.04121481254696846
1783338518032245800,3.166245849609375,-0.015066834166646004,0.021520204842090607,0.04451180621981621
1783338518042219000,3.176218994140625,-0.01393126230686903,0.00754979532212019,0.04602475091814995
1783338518052191700,3.186191650390625,-0.011570103466510773,-0.005773200653493404,0.04815820977091789
1783338518062164700,3.196164794921875,-0.007226753979921341,-0.021087441593408585,0.047154463827610016
1783338518072137700,3.2061376953125,-0.0005789712304249406,-0.03027481585741043,0.04416133463382721
1783338518082111000,3.216111083984375,0.012540292926132679,-0.04153492674231529,0.04387504607439041
1783338518092084000,3.226083984375,0.023084014654159546,-0.05668751522898674,0.043527502566576004
1783338518102056700,3.236056640625,0.02845853939652443,-0.0580020509660244,0.035662390291690826
1783338518112029700,3.24602978515625,0.035897012799978256,-0.052560679614543915,0.026620425283908844
1783338518122003000,3.2560029296875,0.03891517594456673,-0.03718864917755127,0.020902885124087334
1783338518131976000,3.265975830078125,0.04165050759911537,-0.01854066178202629,0.017944378778338432
1783338518141949000,3.275948974609375,0.04777604341506958,-0.002817624481394887,0.01350755337625742
1783338518151921700,3.285921630859375,0.05246666818857193,0.0049529471434652805,0.010832673870027065
1783338518161895700,3.295895751953125,0.05744970962405205,0.0025712819769978523,0.010216685011982918
1783338518171869000,3.305868896484375,0.060329653322696686,-0.007063501980155706,0.012009791098535061
1783338518181842000,3.315842041015625,0.06568420678377151,-0.026141056790947914,0.014069479890167713
1783338518191815000,3.32581494140625,0.06538166850805283,-0.04838217794895172,0.014642592519521713
1783338518201788000,3.335787841796875,0.06327271461486816,-0.07393840700387955,0.016277506947517395
1783338518211760600,3.3457607421875,0.058111771941185,-0.09457683563232422,0.01913934014737606
1783338518221734000,3.35573388671875,0.04893079027533531,-0.11178991198539734,0.019399531185626984
1783338518231707000,3.365706787109375,0.039807066321372986,-0.12288251519203186,0.019902335479855537
1783338518241680000,3.375679931640625,0.03447755053639412,-0.13263660669326782,0.01865730807185173
1783338518251652600,3.385652587890625,0.028007932007312775,-0.13923299312591553,0.012584234587848186
1783338518261625900,3.3956259765625,0.020313793793320656,-0.1433931142091751,0.0038245655596256256
1783338518271598800,3.405598876953125,0.015321165323257446,-0.14580434560775757,-0.005959089379757643
1783338518281571800,3.41557177734375,0.009601760655641556,-0.14865684509277344,-0.01631559059023857
1783338518291545900,3.4255458984375,0.0024106933269649744,-0.14697054028511047,-0.027271036058664322
1783338518301518800,3.435518798828125,-0.000045806369598722085,-0.14201466739177704,-0.0391085185110569
1783338518311491800,3.445491943359375,-0.0020034960471093655,-0.13664039969444275,-0.047640491276979446
1783338518321464800,3.45546484375,-0.003516171593219042,-0.13450321555137634,-0.05494127795100212
1783338518331437800,3.465437744140625,-0.0026852653827518225,-0.13259053230285645,-0.059965331107378006
1783338518341410800,3.475410888671875,-0.003913515247404575,-0.13079875707626343,-0.0632021352648735
1783338518351383800,3.4853837890625,-0.004541754722595215,-0.13178466260433197,-0.06476541608572006
1783338518361356800,3.495356689453125,-0.007335943635553122,-0.13049276173114777,-0.06415075808763504
1783338518371329800,3.505329833984375,-0.00703873485326767,-0.12559626996517181,-0.0623302198946476
1783338518381302800,3.515302734375,-0.00839534867554903,-0.12108328193426132,-0.0591309629380703
1783338518391275800,3.52527587890625,-0.007638478651642799,-0.11415772885084152,-0.05285096541047096
1783338518401249000,3.5352490234375,-0.0068083712831139565,-0.10638396441936493,-0.044810082763433456
1783338518411223000,3.54522314453125,-0.005875732284039259,-0.09912525117397308,-0.032515864819288254
1783338518421195800,3.55519580078125,-0.004637362435460091,-0.09317787736654282,-0.0198685135692358
1783338518431168800,3.565168701171875,-0.002938798163086176,-0.09297414869070053,-0.0083071980625391
1783338518441141800,3.575141845703125,-0.0009739180095493793,-0.09749113768339157,0.0007084008539095521
1783338518451115000,3.585114990234375,0.0028509139083325863,-0.1023000031709671,0.003913781605660915
1783338518461088000,3.595087890625,0.00720598129555583,-0.10526889562606812,0.008330633863806725
1783338518471060700,3.605060791015625,0.012838300317525864,-0.10494798421859741,0.008844357915222645
1783338518481033700,3.61503369140625,0.01630600169301033,-0.10764230787754059,0.009110141545534134
1783338518491007000,3.625007080078125,0.01605806313455105,-0.10846282541751862,0.008203867822885513
1783338518500980000,3.63497998046875,0.01950685679912567,-0.10812939703464508,0.0073625752702355385
1783338518510953000,3.644952880859375,0.018092717975378036,-0.10251332819461823,0.0041518681682646275
1783338518520925700,3.65492578125,0.015794409438967705,-0.09463489800691605,0.0034226945135742426
1783338518530898700,3.664898681640625,0.015537946484982967,-0.08398465067148209,0.0002181128947995603
1783338518540872700,3.674872802734375,0.012532036751508713,-0.07267793267965317,-0.007923436351120472
1783338518550846000,3.684845947265625,0.009981261566281319,-0.05974295735359192,-0.013081447221338749
1783338518560819000,3.69481884765625,0.006714095361530781,-0.04619678854942322,-0.017588315531611443
1783338518570791700,3.704791748046875,0.004206729121506214,-0.031212247908115387,-0.022065088152885437
1783338518580764700,3.7147646484375,0.00213532242923975,-0.015955263748764992,-0.023394271731376648
1783338518590738000,3.724738037109375,0.0008937568636611104,-0.009119462221860886,-0.019532687962055206
1783338518600711000,3.7347109375,-0.00005805691034765914,-0.00891067087650299,-0.018560901284217834
1783338518610684000,3.744683837890625,0.0008612662786617875,-0.009455553255975246,-0.018410699442029
1783338518620656600,3.75465673828125,0.002767290687188506,-0.007494934368878603,-0.018556106835603714
1783338518630630000,3.7646298828125,0.004800347611308098,-0.0029622339643538,-0.018146513029932976
1783338518640603000,3.774602783203125,0.008697085082530975,0.005478388629853725,-0.013082779012620449
1783338518650576000,3.784575927734375,0.01630653440952301,0.013586915098130703,-0.004137753508985043
1783338518660550000,3.7945498046875,0.023204121738672256,0.01786395162343979,0.00993225909769535
1783338518670523000,3.80452294921875,0.030427947640419006,0.022062690928578377,0.020002469420433044
1783338518680495600,3.81449560546875,0.03977537527680397,0.02780100516974926,0.027752535417675972
1783338518690468900,3.82446875,0.04585377499461174,0.03825018182396889,0.02865028753876686
1783338518700441900,3.83444189453125,0.06778304278850555,0.033667948096990585,0.032767001539468765
1783338518710414800,3.844414794921875,0.05403393879532814,0.037933800369501114,0.030115291476249695
1783338518720387800,3.854387939453125,0.04524737223982811,0.04479090869426727,0.03182663768529892
1783338518730360800,3.86436083984375,0.04574112221598625,0.04067685455083847,0.03520752117037773
1783338518740333800,3.874333740234375,0.05139794200658798,0.01745196059346199,0.04230697825551033
1783338518750306800,3.884306884765625,0.05074094235897064,-0.010883806273341179,0.05020271614193916
1783338518760279800,3.89427978515625,0.04935237020254135,-0.04418104141950607,0.05705929175019264
1783338518770253000,3.904253173828125,0.04993027448654175,-0.07179216295480728,0.0653180181980133
1783338518780227000,3.91422705078125,0.04345772787928581,-0.08592183142900467,0.0652807354927063
1783338518790199800,3.92419970703125,0.03477475792169571,-0.08318117260932922,0.06290146708488464
1783338518800172800,3.9341728515625,0.03363066539168358,-0.07023048400878906,0.05678551644086838
1783338518810145800,3.944145751953125,0.030523020774126053,-0.05723665654659271,0.04881441220641136
1783338518820118800,3.954118896484375,0.024814004078507423,-0.04291311278939247,0.03807467967271805
1783338518830091800,3.964091796875,0.01769324392080307,-0.02436126582324505,0.022767363116145134
1783338518840064800,3.974064697265625,0.01176131796091795,0.000526773277670145,0.005228051450103521
1783338518850037800,3.984037841796875,0.005545500200241804,0.024748755618929863,-0.013968279585242271
1783338518860010800,3.9940107421875,-0.0005994775565341115,0.04277276247739792,-0.031263381242752075
1783338518869984000,4.00398388671875,-0.007303985767066479,0.05267546325922012,-0.04572940617799759
1783338518879956700,4.013956787109375,-0.010065683163702488,0.05437961965799332,-0.053037650883197784
1783338518889930800,4.0239306640625,-0.015117167495191097,0.04839283227920532,-0.05690935626626015
1783338518899903700,4.03390380859375,-0.016922790557146072,0.03540406376123428,-0.05855199322104454
1783338518909876700,4.043876708984375,-0.017838118597865105,0.017478592693805695,-0.05786942318081856
1783338518919850000,4.05385009765625,-0.019897274672985077,-0.00276196445338428,-0.05041976273059845
1783338518929823000,4.063822998046875,-0.01926583983004093,-0.024712802842259407,-0.04381619021296501
1783338518939795700,4.073795654296875,-0.017294567078351974,-0.04328089579939842,-0.03687519207596779
1783338518949768700,4.083768798828125,-0.016455406323075294,-0.06088518723845482,-0.02876240573823452
1783338518959742000,4.093741943359375,-0.018863169476389885,-0.07414213567972183,-0.021105818450450897
1783338518969715000,4.10371484375,-0.017943313345313072,-0.08159606158733368,-0.0198016669601202
1783338518979688000,4.11368798828125,-0.01798539236187935,-0.08598734438419342,-0.015263374894857407
1783338518989660700,4.12366064453125,-0.01624874398112297,-0.08422140032052994,-0.013585050590336323
1783338518999633700,4.133633544921875,-0.014310229569673538,-0.07882051169872284,-0.010120544582605362
1783338519009607700,4.143607666015625,-0.014130732975900173,-0.07477064430713654,-0.00803449098020792
1783338519019581000,4.153580810546875,-0.012248942628502846,-0.06887413561344147,-0.007476824801415205
1783338519029554000,4.163553955078125,-0.011582886800169945,-0.06373370438814163,-0.011295797303318977
1783338519039527000,4.17352685546875,-0.011565309949219227,-0.05072949081659317,-0.015322497114539146
1783338519049499600,4.183499755859375,-0.01095491275191307,-0.03399525210261345,-0.021346567198634148
1783338519059473000,4.193472900390625,-0.010697385296225548,-0.015658322721719742,-0.026549851521849632
1783338519069446000,4.20344580078125,-0.012526710517704487,0.0007699198904447258,-0.03181545436382294
1783338519079419000,4.2134189453125,-0.008883772417902946,0.014601846225559711,-0.0340767428278923
1783338519089391900,4.223391845703125,-0.013190370053052902,0.028331240639090538,-0.03447515144944191
1783338519099364900,4.23336474609375,-0.014698784798383713,0.03983290120959282,-0.03280694782733917
1783338519109337900,4.243337890625,-0.010012419894337654,0.04704633727669716,-0.030171217396855354
1783338519119310800,4.253310791015625,-0.010901383124291897,0.04847858473658562,-0.026811907067894936
1783338519129284900,4.263284912109375,-0.00968431867659092,0.044861748814582825,-0.019083945080637932
1783338519139257900,4.2732578125,-0.010728278197348118,0.03748771920800209,-0.015230618417263031
1783338519149230600,4.283230712890625,-0.008985505439341068,0.030404778197407722,-0.008310128003358841
1783338519159203800,4.293203857421875,-0.008493886329233646,0.02509975992143154,-0.004501008428633213
1783338519169176800,4.3031767578125,-0.0054333810694515705,0.020861338824033737,0.005061071366071701
1783338519179149800,4.31314990234375,-0.008862201124429703,0.019999008625745773,0.010244647972285748
1783338519189122800,4.323122802734375,-0.0043713124468922615,0.02088317833840847,0.01721973344683647
1783338519199095800,4.333095703125,-0.007820372469723225,0.026398317888379097,0.022347649559378624
1783338519209068800,4.34306884765625,-0.00917538907378912,0.03116084821522236,0.024030501022934914
1783338519219041800,4.353041748046875,-0.00936101097613573,0.041911762207746506,0.024641962721943855
1783338519229014800,4.363014892578125,-0.009513343684375286,0.049435194581747055,0.023667778819799423
1783338519238988800,4.37298876953125,-0.011766377836465836,0.05537803843617439,0.022955648601055145
1783338519248962000,4.382962158203125,-0.012077169492840767,0.0585959367454052,0.02220410481095314
1783338519258934800,4.392934814453125,-0.011173824779689312,0.06558060646057129,0.019031481817364693
1783338519268907800,4.40290771484375,-0.012083028443157673,0.07257246971130371,0.013036972843110561
1783338519278880800,4.412880859375,-0.011373828165233135,0.08121389895677567,0.009651828557252884
1783338519288853800,4.422853759765625,-0.010937602259218693,0.0837998241186142,0.004746285732835531
1783338519298827000,4.432826904296875,-0.011810054071247578,0.08541370183229446,0.0020066918805241585
1783338519308799700,4.4427998046875,-0.011067298240959644,0.08274015039205551,0.0010871023405343294
1783338519318773000,4.45277294921875,-0.008648615330457687,0.07925061136484146,0.0014032195322215557
1783338519328746000,4.46274609375,-0.00788375549018383,0.07365105301141739,0.001306280493736267
1783338519338719200,4.47271923828125,-0.003930559381842613,0.06875136494636536,0.0017238641157746315
1783338519348692200,4.482692138671875,-0.0034967304673045874,0.06427139788866043,0.004286357667297125
1783338519358666200,4.492666259765625,-0.0012801815755665302,0.06052140146493912,0.006551109720021486
1783338519368639000,4.502638916015625,0.0009619337506592274,0.055861666798591614,0.006896255537867546
1783338519378612000,4.512612060546875,0.0012207929976284504,0.05137797072529793,0.01010802760720253
1783338519388585200,4.522585205078125,0.0025888588279485703,0.047140080481767654,0.009209210984408855
1783338519398558200,4.53255810546875,0.005389971658587456,0.045532066375017166,0.010432933457195759
1783338519408531200,4.54253125,0.005100485868752003,0.045157358050346375,0.011122159659862518
1783338519418504000,4.55250390625,0.0019198728259652853,0.04483005404472351,0.013774135150015354
1783338519428477000,4.562476806640625,0.0009187905816361308,0.04235624521970749,0.015006380155682564
1783338519438450200,4.5724501953125,0.0016767261549830437,0.03777614235877991,0.012620720081031322
1783338519448423200,4.582423095703125,0.0005917543894611299,0.032162196934223175,0.010150372050702572
1783338519458397200,4.592397216796875,0.0012279836228117347,0.028929119929671288,0.00643659383058548
1783338519468370200,4.6023701171875,0.000586161739192903,0.02948039397597313,0.0026759442407637835
1783338519478343000,4.612343017578125,-0.00008388957212446257,0.031126227229833603,-0.0010729875648394227
1783338519488316200,4.622316162109375,-0.0016314524691551924,0.03152170777320862,-0.0028522454667836428
1783338519498289200,4.6322890625,-0.003887682454660535,0.03369537740945816,-0.0057524279691278934
1783338519508262100,4.64226220703125,-0.006703442893922329,0.031126493588089943,-0.009896039962768555
1783338519518235000,4.65223486328125,-0.008667523972690105,0.031082818284630775,-0.010637197643518448
1783338519528208100,4.6622080078125,-0.012059059925377369,0.031031152233481407,-0.012917662970721722
1783338519538181000,4.67218115234375,-0.012340555898845196,0.028137361630797386,-0.01588628813624382
1783338519548154000,4.682154052734375,-0.009882192127406597,0.026820961385965347,-0.018136393278837204
1783338519558127000,4.692127197265625,-0.008591890335083008,0.02263260819017887,-0.023849407210946083
1783338519568100000,4.70210009765625,-0.0038450718857347965,0.01618296466767788,-0.0244922935962677
1783338519578073900,4.712073974609375,-0.0011579424608498812,0.011725098825991154,-0.025404958054423332
1783338519588047000,4.722047119140625,0.0017923073610290885,0.006523413117974997,-0.021739916875958443
1783338519598020000,4.73202001953125,0.003629888640716672,0.0031609057914465666,-0.01678483933210373
1783338519607993000,4.7419931640625,0.004890629090368748,-0.0017113472567871213,-0.008943693712353706
1783338519617966000,4.751966064453125,0.006876814644783735,-0.0038181741256266832,-0.004588626325130463
1783338519627939000,4.76193896484375,0.008106395602226257,-0.009088569320738316,-0.001580319833010435
1783338519637912000,4.771912109375,0.0073263561353087425,-0.009921340271830559,-0.00013635384675581008
1783338519647885000,4.781885009765625,0.008489091880619526,-0.00965608935803175,0.0009941579774022102
1783338519657858000,4.791858154296875,0.007983624003827572,-0.010808705352246761,0.00005672533006872982
1783338519667831300,4.801831298828125,0.007273092865943909,-0.011578358709812164,-0.002813629573211074
1783338519677804000,4.811803955078125,0.007683219853788614,-0.014088122174143791,-0.006130064371973276
1783338519687778000,4.821778076171875,0.008294148370623589,-0.01613476127386093,-0.00914476253092289
1783338519697751000,4.8317509765625,0.0062485747039318085,-0.01781361736357212,-0.01034584827721119
1783338519707724000,4.84172412109375,0.004706338047981262,-0.019824571907520294,-0.014373079873621464
1783338519717697000,4.851697021484375,0.00321869645267725,-0.02280731126666069,-0.015446334145963192
1783338519727670300,4.861670166015625,0.00001704423084447626,-0.023302659392356873,-0.01738405041396618
1783338519737643000,4.87164306640625,-0.0011169298086315393,-0.021986525505781174,-0.020851485431194305
1783338519747616000,4.881615966796875,-0.001800030586309731,-0.021506091579794884,-0.02207467518746853
1783338519757589000,4.891589111328125,-0.00401684595271945,-0.019995812326669693,-0.0253442395478487
1783338519767562200,4.901562255859375,-0.0034437335561960936,-0.016644757241010666,-0.028023645281791687
1783338519777535200,4.91153515625,-0.004324973560869694,-0.01257997378706932,-0.025847842916846275
1783338519787508000,4.921508056640625,-0.005261341109871864,-0.008920524269342422,-0.025833195075392723
1783338519797482000,4.93148193359375,-0.003436809405684471,-0.012871057726442814,-0.022040320560336113
1783338519807455000,4.941455078125,-0.004522313829511404,-0.01792706921696663,-0.01998729072511196
1783338519817428200,4.95142822265625,-0.00563897704705596,-0.02219611592590809,-0.0193081833422184
1783338519827401200,4.961401123046875,-0.004235491156578064,-0.022701583802700043,-0.020986242219805717
1783338519837374000,4.9713740234375,-0.005164668429642916,-0.02533039078116417,-0.020019248127937317
1783338519847347000,4.981346923828125,-0.004391552414745092,-0.02997041493654251,-0.017972076311707497
1783338519857320200,4.9913203125,-0.004227235447615385,-0.03190227225422859,-0.01973855122923851
1783338519867293200,5.001293212890625,-0.002841326640918851,-0.03429405763745308,-0.01961737684905529
1783338519877266200,5.01126611328125,-0.0020415792241692543,-0.031087346374988556,-0.0211271233856678
1783338519887239000,5.021239013671875,-0.003742806613445282,-0.02508884109556675,-0.020430972799658775
1783338519897212000,5.0312119140625,-0.005114068277180195,-0.021394504234194756,-0.018607240170240402
1783338519907186000,5.04118603515625,-0.004174238536506891,-0.018672220408916473,-0.01563674956560135
1783338519917159200,5.0511591796875,-0.0078531289473176,-0.016378439962863922,-0.012968795374035835
1783338519927132200,5.061132080078125,-0.008534898981451988,-0.015618640929460526,-0.013209811411798
1783338519937105200,5.071105224609375,-0.01059245690703392,-0.015499331057071686,-0.013395966030657291
1783338519947078000,5.081077880859375,-0.00926407240331173,-0.01190859079360962,-0.01299223117530346
1783338519957051100,5.091051025390625,-0.009093363769352436,-0.010341054759919643,-0.016157930716872215
1783338519967024000,5.101024169921875,-0.009133577346801758,-0.00896579772233963,-0.01440903265029192
1783338519976997000,5.1109970703125,-0.010117615573108196,-0.007408647798001766,-0.015033810399472713
1783338519986970000,5.12097021484375,-0.0070456587709486485,-0.003727093804627657,-0.01434991043061018
1783338519996943000,5.130943115234375,-0.004442152567207813,0.0005528722540475428,-0.012859872542321682
1783338520006917000,5.140917236328125,-0.0036615801509469748,0.0028879318851977587,-0.008869391866028309
1783338520016890000,5.15089013671875,-0.0031164311803877354,0.003495132550597191,-0.0052413675002753735
1783338520026863000,5.160863037109375,0.00013901700731366873,0.0015755260828882456,-0.001674595638178289
1783338520036836000,5.170836181640625,-0.00037044569035060704,-0.002371012233197689,-0.001874066423624754
1783338520046809000,5.18080908203125,0.00002902845517382957,-0.006213687360286713,-0.0018559569725766778
1783338520056782000,5.190781982421875,-0.0004165183927398175,-0.009034507907927036,-0.003272492438554764
1783338520066755000,5.200755126953125,-0.0017369136912748218,-0.009400160051882267,-0.0035169704351574183
1783338520076728000,5.21072802734375,-0.0022533005103468895,-0.009905361570417881,-0.0051564122550189495
1783338520086701000,5.220701171875,-0.0038807583041489124,-0.013263341039419174,-0.004820055328309536
1783338520096674000,5.230674072265625,-0.0046384274028241634,-0.015246064402163029,-0.006103964988142252
1783338520106647000,5.24064697265625,-0.004741225857287645,-0.015994412824511528,-0.004825381562113762
1783338520116620000,5.2506201171875,-0.005086104851216078,-0.014426609501242638,-0.004719654098153114
1783338520126594000,5.260593994140625,-0.005903695244342089,-0.011842012405395508,-0.004945490043610334
1783338520136567000,5.270567138671875,-0.006866960786283016,-0.009483516216278076,-0.003585680155083537
1783338520146540300,5.280540283203125,-0.006463225465267897,-0.008109059184789658,-0.00469462014734745
1783338520156513000,5.290512939453125,-0.00592473428696394,-0.008047273382544518,-0.005593437235802412
1783338520166486000,5.300486083984375,-0.004693288821727037,-0.004781439434736967,-0.005853361915796995
1783338520176459000,5.310458984375,-0.004880242515355349,-0.0033949976786971092,-0.007668838836252689
1783338520186432000,5.320431884765625,-0.005250688176602125,-0.0012471582740545273,-0.007759386207908392
1783338520196405200,5.3304052734375,-0.005495166406035423,-0.001841842196881771,-0.00908510759472847
1783338520206378000,5.3403779296875,-0.0052083441987633705,-0.0018588864477351308,-0.009500560350716114
1783338520216352000,5.35035205078125,-0.004002464935183525,-0.0008799084462225437,-0.011351724155247211
1783338520226325000,5.360324951171875,-0.004070109222084284,-0.0015957661671563983,-0.010042247362434864
1783338520236298000,5.370298095703125,-0.00546294217929244,0.00006950850365683436,-0.007503456436097622
1783338520246271200,5.380271240234375,-0.004297010600566864,0.002656769473105669,-0.0070770843885838985
1783338520256244200,5.390244140625,-0.002817890839651227,0.003459712490439415,-0.004603806417435408
1783338520266217000,5.400217041015625,-0.004508997779339552,0.006873885169625282,-0.004049869254231453
1783338520276190000,5.41018994140625,-0.0022144184913486242,0.005685316398739815,-0.0020354539155960083
1783338520286163200,5.4201630859375,-0.0015462313313037157,0.0037497307639569044,-0.001654355670325458
1783338520296136200,5.43013623046875,-0.0019241338595747948,0.003305781865492463,0.0002479403046891093
1783338520306109200,5.440109130859375,-0.0011656655697152019,0.0006641923682764173,0.0003158508916385472
1783338520316082000,5.45008203125,-0.0015006912872195244,-0.0021382521372288465,0.0009084042394533753
1783338520326055700,5.4600556640625,-0.0020791299175471067,-0.004258128348737955,0.00039947417099028826
1783338520336029000,5.47002880859375,-0.002409095410257578,-0.006244846619665623,-0.0013070794520899653
1783338520346002000,5.480001953125,-0.0029025792609900236,-0.0059601543471217155,-0.0022303974255919456
1783338520355974700,5.489974609375,-0.0049673281610012054,-0.002921754028648138,-0.004795554094016552
1783338520365947600,5.49994775390625,-0.0057106162421405315,-0.001234641415067017,-0.006939931306988001
1783338520375921000,5.5099208984375,-0.005889047868549824,0.0021875204984098673,-0.004942027851939201
1783338520385894000,5.519893798828125,-0.009869941510260105,0.003971039317548275,-0.0056919739581644535
1783338520395866600,5.52986669921875,-0.008073106408119202,0.009617740288376808,-0.0022455775178968906
1783338520405839600,5.539839599609375,-0.00857271533459425,0.013071327470242977,-0.0004058657505083829
1783338520415812600,5.5498125,-0.00980496034026146,0.010377805680036545,0.0006079996819607913
1783338520425785900,5.559785888671875,-0.009455020539462566,0.007140467409044504,0.0018402442801743746
1783338520435759900,5.569759765625,-0.00762969022616744,0.004801945760846138,-0.00011984224693151191
1783338520445732900,5.57973291015625,-0.00788668543100357,0.004234692547470331,0.0020807278342545033
1783338520455705600,5.58970556640625,-0.00449861166998744,0.0019233349012210965,0.0018785938154906034
1783338520465678600,5.5996787109375,-0.002364886924624443,-0.000021305288100847974,0.00008442220860160887
1783338520475651800,5.60965185546875,-0.003311108099296689,-0.001347559504210949,0.0000798948312876746
1783338520485624800,5.619624755859375,-0.0008269115351140499,-0.003974501509219408,-0.0002287655370309949
1783338520495597800,5.629597900390625,-0.0009566074586473405,-0.005752161610871553,-0.0017164073651656508
1783338520505570600,5.639570556640625,-0.00010439591278554872,-0.005173190496861935,-0.00236249016597867
1783338520515543800,5.649543701171875,0.0002849582233466208,-0.005961486138403416,-0.003881823504343629
1783338520525516800,5.659516845703125,0.0005488775204867125,-0.005244829226285219,-0.004044010303914547
1783338520535489800,5.66948974609375,0.0014335796004161239,-0.0065620290115475655,-0.0037494644057005644
1783338520545463800,5.6794638671875,-0.00034887410583905876,-0.0062517705373466015,-0.006050169467926025
1783338520555436800,5.689436767578125,-0.0005803027888759971,-0.0075902752578258514,-0.005090366117656231
1783338520565409500,5.699409423828125,-0.002201369032263756,-0.005520733073353767,-0.00815193634480238
1783338520575382800,5.7093828125,-0.0029611687641590834,-0.003967577591538429,-0.008243548683822155
1783338520585355800,5.719355712890625,-0.002972354181110859,-0.003576092654839158,-0.008402273058891296
1783338520595328800,5.729328857421875,-0.0035228293854743242,-0.00036964676110073924,-0.005712214391678572
1783338520605301800,5.7393017578125,-0.003938548732548952,-0.0004370247188489884,-0.008838232606649399
1783338520615274800,5.749274658203125,-0.0035177695099264383,0.00007936220208648592,-0.00845553632825613
1783338520625247700,5.759247802734375,-0.004478105343878269,0.00017949705943465233,-0.006745786871761084
1783338520635220700,5.769220703125,-0.0020532971248030663,0.000630902883131057,-0.008039284497499466
1783338520645193700,5.77919384765625,-0.0018066884949803352,-0.0008948221220634878,-0.006308762356638908
1783338520655167000,5.7891669921875,-0.0008596684201620519,-0.00155288923997432,-0.003180879633873701
1783338520665141000,5.79914111328125,0.004801945760846138,-0.0037729002069681883,0.001281779375858605
1783338520675113700,5.80911376953125,0.004986236337572336,-0.008025702089071274,0.0016887104138731956
1783338520685086700,5.819086669921875,0.0041436124593019485,-0.013345899060368538,0.004971588961780071
1783338520695059700,5.829059814453125,0.004633633885532618,-0.01661599427461624,0.001942509668879211
1783338520705032700,5.83903271484375,0.0038546593859791756,-0.020734306424856186,0.0015715312911197543
1783338520715005700,5.849005615234375,0.003962517250329256,-0.02225683629512787,-0.0006828344776295125
1783338520724978700,5.858978759765625,0.0029609024059027433,-0.0219670832157135,-0.0036107138730585575
1783338520734951700,5.86895166015625,0.0018362496048212051,-0.01913614384829998,-0.008053665049374104
1783338520744924700,5.878924560546875,0.0016977651976048946,-0.017854364588856697,-0.007480819243937731
1783338520754898000,5.88889794921875,0.0010956244077533484,-0.014129933901131153,-0.008420382626354694
1783338520764870700,5.89887060546875,-0.00031798143754713237,-0.013544037938117981,-0.010069944895803928
1783338520774844700,5.9088447265625,-0.0017933726776391268,-0.012797820381820202,-0.006957241799682379
1783338520784817700,5.918817626953125,-0.00030599720776081085,-0.013937919400632381,-0.0076147764921188354
1783338520794790700,5.928790771484375,-0.0005193164106458426,-0.01732652634382248,-0.004886367823928595
1783338520804764000,5.938763916015625,-0.0010908307740464807,-0.020260263234376907,-0.003008040366694331
1783338520814737000,5.94873681640625,-0.0011313108261674643,-0.02243899554014206,-0.004662129562348127
1783338520824709600,5.958709716796875,-0.0017326525412499905,-0.02375699393451214,-0.00535561703145504
1783338520834682600,5.9686826171875,-0.0010277138790115714,-0.024229172617197037,-0.007114102132618427
1783338520844655900,5.97865576171875,-0.0010785802733153105,-0.025538383051753044,-0.007641674485057592
1783338520854628900,5.98862890625,-0.0008801747462712228,-0.023627031594514847,-0.00896526500582695
1783338520864601900,5.998601806640625,-0.0015278555219992995,-0.022714899852871895,-0.007726362906396389
1783338520874576000,6.008575927734375,-0.000740625080652535,-0.02201715111732483,-0.009220129810273647
1783338520884548600,6.018548583984375,0.00013635384675581008,-0.019897274672985077,-0.006511961575597525
1783338520894521600,6.028521484375,0.0006474144756793976,-0.018933476880192757,-0.005830724723637104
1783338520904494800,6.038494873046875,-0.00035712990211322904,-0.01792440563440323,-0.005084507167339325
1783338520914467800,6.0484677734375,0.0007539408979937434,-0.018738001585006714,-0.004345213528722525
1783338520924440800,6.05844091796875,0.00041039311327040195,-0.018968896940350533,-0.0051747881807386875
1783338520934413600,6.06841357421875,0.0014852449530735612,-0.01708124950528145,-0.004917260725051165
1783338520944386800,6.07838671875,0.0019142802339047194,-0.01853054016828537,-0.003925233148038387
1783338520954359800,6.08835986328125,0.0029971215408295393,-0.016571253538131714,-0.004518052563071251
1783338520964332800,6.098332763671875,0.003967044875025749,-0.01691586710512638,-0.003162503708153963
1783338520974305800,6.108305908203125,0.0017214673571288586,-0.01660267822444439,-0.005153216887265444
1783338520984279600,6.118279541015625,0.0029550434555858374,-0.014197577722370625,-0.002837864449247718
1783338520994252800,6.128252685546875,0.0032764871139079332,-0.011424694210290909,-0.002953978255391121
1783338521004225800,6.138225830078125,0.0043321643024683,-0.011373295448720455,-0.0018660769565030932
1783338521014198800,6.14819873046875,0.0025995115283876657,-0.010007892735302448,-0.0013294500531628728
1783338521024171800,6.158171875,0.00279099284671247,-0.01025583315640688,-0.0019491675775498152
1783338521034144500,6.16814453125,0.0026586337480694056,-0.009280583821237087,-0.004176635295152664
1783338521044117800,6.17811767578125,0.0022066952660679817,-0.008198807947337627,-0.00481259822845459
1783338521054090800,6.1880908203125,0.002380333375185728,-0.0029614351224154234,-0.004767058417201042
1783338521064063700,6.198063720703125,0.0024564997293055058,-0.0027087011840194464,-0.0017273263074457645
1783338521074036700,6.20803662109375,0.001978462329134345,-0.0009840379934757948,-0.0005928196478635073
1783338521084009700,6.218009765625,0.0029638318810611963,-0.0019800602458417416,0.001335841603577137
1783338521093983700,6.227983642578125,0.002570483135059476,-0.002956907730549574,0.0027385284192860126
1783338521103956700,6.237956787109375,-0.00010812433902174234,-0.002650644164532423,0.005045358557254076
1783338521113929700,6.2479296875,0.00041758365114219487,-0.002174204681068659,0.0037774275988340378
1783338521123902700,6.25790283203125,0.0003230414295103401,-0.0019371833186596632,0.004644020460546017
1783338521133876000,6.2678759765625,-0.0013406352372840047,-0.0035148400347679853,0.0034879420418292284
1783338521143848700,6.2778486328125,-0.0005885586142539978,-0.0027382622938603163,0.0031846079509705305
1783338521153821700,6.28782177734375,0.0014769891276955605,-0.004338289611041546,0.0021057615522295237
1783338521163794700,6.297794677734375,0.0031704932916909456,-0.0018399780383333564,0.000284159294096753
1783338521173767700,6.307767578125,0.0016506272368133068,0.005338838789612055,-0.00009960222087102011
1783338521183741000,6.317740966796875,0.001583249308168888,0.005517270881682634,0.00027616979787126184
1783338521193713700,6.327713623046875,0.002517752582207322,0.007002515718340874,0.002287655370309949
1783338521203687700,6.337687744140625,0.0005432848702184856,0.006187322083860636,0.004125502891838551
1783338521213660700,6.34766064453125,0.001933454885147512,0.005060272291302681,0.005163602996617556
1783338521223633700,6.357633544921875,-0.00018349179299548268,0.0033723609521985054,0.00526666734367609
1783338521233607000,6.36760693359375,-0.0024461133871227503,0.004220577888190746,0.003631752682849765
1783338521243580000,6.377579833984375,-0.003245061729103327,0.005526059307157993,-0.00037683729897253215
1783338521253552600,6.387552734375,-0.004887965973466635,0.009188970550894737,-0.003311640815809369
1783338521263525600,6.397525634765625,-0.00708773685619235,0.00980496034026146,-0.00669305631890893
1783338521273499000,6.407498779296875,-0.009071258828043938,0.015051120892167091,-0.005517537239938974
1783338521283472000,6.417471923828125,-0.010240120813250542,0.019362246617674828,-0.00472631212323904
1783338521293444600,6.427444580078125,-0.010784470476210117,0.027181286364793777,-0.0013539510546252131
1783338521303418600,6.437418701171875,-0.009346097707748413,0.033784862607717514,0.0037502634804695845
1783338521313391600,6.4473916015625,-0.010382866486907005,0.039264846593141556,0.008432100526988506
1783338521323364400,6.4573642578125,-0.008882441557943821,0.04256423935294151,0.012145612388849258
1783338521333337300,6.46733740234375,-0.008851815015077591,0.043053727596998215,0.015508651733398438
1783338521343310300,6.477310302734375,-0.008962868712842464,0.04253121465444565,0.016499347984790802
1783338521353283000,6.487282958984375,-0.0080925477668643,0.044378917664289474,0.01631026342511177
1783338521363256300,6.49725634765625,-0.007522098254412413,0.04878857731819153,0.015333948656916618
1783338521373229300,6.507229248046875,-0.007498662453144789,0.05222538858652115,0.014286793768405914
1783338521383202300,6.517202392578125,-0.008067247457802296,0.05874906852841377,0.013865215703845024
1783338521393175300,6.52717529296875,-0.00663340138271451,0.06036533787846565,0.014052968472242355
1783338521403148300,6.537148193359375,-0.008173507638275623,0.062010109424591064,0.015864184126257896
1783338521413122300,6.547122314453125,-0.0067726848646998405,0.06341412663459778,0.017887653782963753
1783338521423095300,6.55709521484375,-0.005843774415552616,0.06515130400657654,0.017253555357456207
1783338521433068300,6.567068359375,-0.006644320674240589,0.06506954878568649,0.019951337948441505
1783338521443041300,6.577041259765625,-0.005042162723839283,0.06784722208976746,0.022044582292437553
1783338521453014000,6.587013916015625,-0.006764162797480822,0.06767705082893372,0.021563349291682243
1783338521462987300,6.5969873046875,-0.007273625582456589,0.06785574555397034,0.021378790959715843
1783338521472960300,6.606960205078125,-0.008754875510931015,0.07091359049081802,0.020726317539811134
1783338521482933200,6.616933349609375,-0.01034744642674923,0.07457862794399261,0.01859179325401783
1783338521492906200,6.62690625,-0.01044545043259859,0.077173613011837,0.017347564920783043
1783338521502879200,6.636879150390625,-0.010158894583582878,0.07982878386974335,0.014736868441104889
1783338521512852200,6.646852294921875,-0.009441970847547054,0.08023545145988464,0.015501994639635086
1783338521522826200,6.656826171875,-0.009384713135659695,0.0826549306511879,0.015728097409009933
1783338521532799200,6.66679931640625,-0.009465673007071018,0.08109405636787415,0.016035424545407295
1783338521542772200,6.676772216796875,-0.009372728876769543,0.08071934431791306,0.0175640806555748
1783338521552745200,6.6867451171875,-0.007834487594664097,0.0781073197722435,0.02052205242216587
1783338521562718200,6.69671826171875,-0.0085439532995224,0.07942558079957962,0.021893581375479698
1783338521572691200,6.706691162109375,-0.00851332675665617,0.07883169502019882,0.023239541798830032
1783338521582664200,6.716664306640625,-0.008563394658267498,0.07754379510879517,0.026019616052508354
1783338521592637200,6.72663720703125,-0.008177502080798149,0.07643139362335205,0.02599990926682949
1783338521602610400,6.7366103515625,-0.008083492517471313,0.07530567049980164,0.028210598975419998
1783338521612583200,6.746583251953125,-0.009813215583562851,0.075678251683712,0.027947477996349335
1783338521622556200,6.75655615234375,-0.012464392930269241,0.07356955856084824,0.028447087854146957
1783338521632530200,6.7665302734375,-0.012774650938808918,0.07592832297086716,0.029376531019806862
1783338521642503200,6.776503173828125,-0.013760553672909737,0.08082427829504013,0.029224997386336327
1783338521652476400,6.786476318359375,-0.015788283199071884,0.08588588237762451,0.029260417446494102
1783338521662449400,6.796449462890625,-0.01549373846501112,0.0853966549038887,0.02767210826277733
1783338521672422100,6.806422119140625,-0.016260195523500443,0.08838658779859543,0.02641456387937069
1783338521682395100,6.81639501953125,-0.015094797126948833,0.08685154467821121,0.024216389283537865
1783338521692368400,6.826368408203125,-0.01483540516346693,0.0849686861038208,0.02461772784590721
1783338521702341400,6.83634130859375,-0.015292669646441936,0.08319316059350967,0.02370852418243885
1783338521712314400,6.846314453125,-0.015125690028071404,0.08149219304323196,0.022161494940519333
1783338521722287000,6.856287109375,-0.012426042929291725,0.07854780554771423,0.02099236659705639
1783338521732260400,6.86626025390625,-0.012210327200591564,0.07642686367034912,0.021085843443870544
1783338521742234000,6.876234130859375,-0.01164706889539957,0.0741133764386177,0.020383568480610847
1783338521752207400,6.886207275390625,-0.010948787443339825,0.07351416349411011,0.021339111030101776
1783338521762180400,6.896180419921875,-0.010006827302277088,0.07036817073822021,0.021495439112186432
1783338521772153000,6.906153076171875,-0.008430502377450466,0.06469990313053131,0.020624052733182907
1783338521782126000,6.9161259765625,-0.0073165022768080235,0.05680069699883461,0.02183366008102894
1783338521792099300,6.926099365234375,-0.006695186719298363,0.05042349174618721,0.022660305723547935
1783338521802072300,6.936072265625,-0.007653392385691404,0.04501674324274063,0.02082485519349575
1783338521812045300,6.94604541015625,-0.007558583747595549,0.03820863738656044,0.01822720654308796
1783338521822018000,6.95601806640625,-0.006491987966001034,0.033004555851221085,0.018094582483172417
1783338521831991300,6.9659912109375,-0.004649879410862923,0.02907186560332775,0.01683623716235161
1783338521841964300,6.97596435546875,-0.0068150293081998825,0.024660339578986168,0.015420234762132168
1783338521851938300,6.985938232421875,-0.007339139468967915,0.02466912753880024,0.014838600531220436
1783338521861911300,6.995911376953125,-0.006175337824970484,0.019666112959384918,0.01516004465520382
1783338521871884300,7.00588427734375,-0.009312009438872337,0.01744130812585354,0.014298778027296066
1783338521881857300,7.015857177734375,-0.006929811555892229,0.016756875440478325,0.012200473807752132
1783338521891830300,7.025830322265625,-0.008157795295119286,0.016291089355945587,0.008578307926654816
1783338521901803300,7.03580322265625,-0.006927680689841509,0.013792777433991432,0.0024290692526847124
1783338521911776300,7.0457763671875,-0.0060946443118155,0.013134710490703583,-0.002153964713215828
1783338521921749200,7.055749267578125,-0.006590524688363075,0.010027334094047546,-0.00851572398096323
1783338521931722200,7.06572216796875,-0.007468569092452526,0.009447298012673855,-0.011825500056147575
1783338521941695200,7.0756953125,-0.006476807873696089,0.009810020215809345,-0.014146711677312851
1783338521951669200,7.085669189453125,-0.005852829199284315,0.01056129764765501,-0.015800800174474716
1783338521961642200,7.095642333984375,-0.004245877731591463,0.007510646712034941,-0.015151255764067173
1783338521971615200,7.105615234375,-0.004814994987100363,0.007284544408321381,-0.012294749729335308
1783338521981588500,7.11558837890625,-0.0027262780349701643,0.006677343975752592,-0.010306699201464653
1783338521991561200,7.125561279296875,-0.002587793627753854,0.004744953941553831,-0.009321862831711769
1783338522001534200,7.1355341796875,-0.002263420494273305,-0.0000500674286740832,-0.0052208611741662025
1783338522011507200,7.145507080078125,-0.0030429279431700706,-0.000358461489668116,-0.006225671619176865
1783338522021480400,7.15548046875,-0.0013800500892102718,-0.0022738068364560604,-0.0037646444980055094
1783338522031453200,7.165453125,-0.0005850964807905257,-0.0016088156262412667,-0.0033662356436252594
1783338522041426200,7.17542626953125,-0.0001603222917765379,-0.002960103563964367,-0.0037675739731639624
1783338522051399200,7.185399169921875,0.0006556702428497374,-0.003460245206952095,-0.0011608719360083342
1783338522061372200,7.1953720703125,0.0008306399104185402,-0.0034964641090482473,0.0001371527905575931
1783338522071346200,7.20534619140625,0.0035891421139240265,-0.002095108851790428,-0.0008572715451009572
1783338522081319400,7.2153193359375,0.006552175153046846,0.0003502056933939457,-0.0002263686910737306
1783338522091292200,7.225292236328125,0.006647250149399042,0.002965696156024933,-0.002029062481597066
1783338522101265200,7.23526513671875,0.008156996220350266,0.0026173547375947237,-0.003786748740822077
1783338522111238100,7.245238037109375,0.008519185706973076,0.000005592638444795739,-0.00529596209526062
1783338522121211400,7.25521142578125,0.010307498276233673,-0.002180063631385565,-0.007369765546172857
1783338522131184400,7.265184326171875,0.008702411316335201,-0.004596349783241749,-0.009493370540440083
1783338522141157000,7.2751572265625,0.006968693342059851,-0.006514358334243298,-0.011240670457482338
1783338522151130000,7.285130126953125,0.007266434840857983,-0.006791593506932259,-0.010278203524649143
1783338522161103400,7.295103271484375,0.006521548610180616,-0.008462460711598396,-0.012783706188201904
1783338522171077400,7.305077392578125,0.007126885466277599,-0.007764712441712618,-0.013777065090835094
1783338522181050400,7.31505029296875,0.0075884112156927586,-0.010929879732429981,-0.014311295002698898
1783338522191023400,7.3250234375,0.008049404248595238,-0.014420750550925732,-0.01357253361493349
1783338522200996000,7.33499609375,0.00842863880097866,-0.016592558473348618,-0.012813000939786434
1783338522210969000,7.344968994140625,0.008570319041609764,-0.021225659176707268,-0.013909956440329552
1783338522220942300,7.3549423828125,0.007678692229092121,-0.025511484593153,-0.012601811438798904
1783338522230915300,7.364915283203125,0.007744206115603447,-0.02851899340748787,-0.012626845389604568
1783338522240888300,7.374888427734375,0.006665625609457493,-0.030370688065886497,-0.012897156178951263
1783338522250861000,7.384861083984375,0.006375607568770647,-0.03169507905840874,-0.010331999510526657
1783338522260834300,7.394834228515625,0.005340703297406435,-0.03398939222097397,-0.010204434394836426
1783338522270807300,7.404807373046875,0.004957474302500486,-0.035906337201595306,-0.009382316842675209
1783338522280781300,7.41478125,0.003156911116093397,-0.03370070457458496,-0.010374876670539379
1783338522290754300,7.42475439453125,0.000648479734081775,-0.03133688494563103,-0.011315771378576756
1783338522300727300,7.434727294921875,0.00027270769351162016,-0.02672562003135681,-0.010544786229729652
1783338522310700300,7.4447001953125,-0.001862614881247282,-0.02058676816523075,-0.010549313388764858
1783338522320674000,7.454674072265625,-0.0037175065372139215,-0.016892697662115097,-0.010587397031486034
1783338522330646800,7.464646728515625,-0.004038417246192694,-0.015208248049020767,-0.009395631961524487
1783338522340619800,7.474619873046875,-0.0054581486620008945,-0.012381302192807198,-0.008590824902057648
1783338522350592800,7.4845927734375,-0.005370264407247305,-0.008591357618570328,-0.007394266780465841
1783338522360566000,7.49456591796875,-0.004822452086955309,-0.007216101046651602,-0.005905293393880129
1783338522370539000,7.5045390625,-0.003227484878152609,-0.000728907180018723,-0.0016277240356430411
1783338522380511700,7.51451171875,-0.0056983656249940395,0.002612028270959854,0.0011563445441424847
1783338522390485800,7.52448583984375,-0.004837099462747574,0.0033483924344182014,0.0030546458438038826
1783338522400458800,7.534458740234375,-0.006990265101194382,0.006906908005475998,0.005291700828820467
1783338522410431700,7.544431640625,-0.006885070353746414,0.009603891521692276,0.007488809060305357
1783338522420405000,7.554405029296875,-0.0041340249590575695,0.009724798612296581,0.009297361597418785
1783338522430377700,7.564377685546875,-0.005080245900899172,0.014194915071129799,0.01002014335244894
1783338522440350700,7.574350830078125,-0.003991013392806053,0.014577877707779408,0.010580206289887428
1783338522450323700,7.58432373046875,-0.0011973571963608265,0.015096128918230534,0.009271262213587761
1783338522460297000,7.594296875,-0.004262122791260481,0.014091051183640957,0.007412376347929239
1783338522470270000,7.60427001953125,-0.0018487664638087153,0.014657239429652691,0.0024948492646217346
1783338522480242700,7.61424267578125,-0.0006676545017398894,0.015279886312782764,0.0018381137633696198
1783338522490215700,7.624215576171875,-0.0012370382901281118,0.01528574526309967,-0.001389371114782989
1783338522500189700,7.634189697265625,0.00002902845517382957,0.015124890953302383,-0.00404480891302228
1783338522510163000,7.644162841796875,-0.0029087045695632696,0.012222045101225376,-0.00663366774097085
1783338522520136000,7.654135986328125,-0.003180080559104681,0.012754411436617374,-0.008537561632692814
1783338522530109000,7.66410888671875,-0.005398227367550135,0.012153868563473225,-0.004027232062071562
1783338522540081700,7.67408154296875,-0.008522382006049156,0.008705341257154942,-0.0029292108956724405
1783338522550055000,7.684054931640625,-0.011157846078276634,0.0060030315071344376,-0.000004793690095539205
1783338522560028000,7.69402783203125,-0.011818310245871544,0.0025278725661337376,0.0026229473296552896
1783338522570001000,7.7040009765625,-0.011444668285548687,-0.0008072041091509163,0.0024612934794276953
1783338522579974000,7.713973876953125,-0.01242124941200018,-0.0019230686593800783,0.0036767602432519197
1783338522589946600,7.723946533203125,-0.012417521327733994,0.00028815402765758336,0.0005366269615478814
1783338522599919900,7.733919921875,-0.013162673451006413,0.0003920173039659858,-0.0008234494016505778
1783338522609894000,7.743893798828125,-0.011577825993299484,0.0021518340799957514,-0.003379551460966468
1783338522619867000,7.753866943359375,-0.00987287051975727,0.001612544059753418,-0.006993460934609175
1783338522629840000,7.76383984375,-0.009307214990258217,0.0013880395563319325,-0.0067878649570047855
1783338522639812900,7.773812744140625,-0.010193515568971634,-0.001166198286227882,-0.007486678194254637
1783338522649785900,7.783785888671875,-0.009832124225795269,-0.0036248285323381424,-0.00899722333997488
1783338522659758800,7.7937587890625,-0.009795905090868473,-0.006166815757751465,-0.010318683460354805
1783338522669731800,7.80373193359375,-0.009315471164882183,-0.009034774266183376,-0.011065966449677944
1783338522679704800,7.813704833984375,-0.010509099811315536,-0.010221212171018124,-0.011753861792385578
1783338522689677800,7.823677734375,-0.009634518064558506,-0.008212389424443245,-0.013876400887966156
1783338522699650800,7.83365087890625,-0.01128194946795702,-0.008430768735706806,-0.013184777460992336
1783338522709623800,7.843623779296875,-0.01068060752004385,-0.005472263321280479,-0.011803928762674332
1783338522719597800,7.853597900390625,-0.00965715479105711,-0.004028563853353262,-0.014053234830498695
1783338522729570800,7.86357080078125,-0.010349043644964695,-0.0026794064324349165,-0.012471583671867847
1783338522739543800,7.873543701171875,-0.010695520788431168,-0.0028445222415030003,-0.012286493554711342
1783338522749516800,7.883516845703125,-0.011536813341081142,-0.0036402747500687838,-0.01164333987981081
1783338522759489800,7.89348974609375,-0.012377840466797352,-0.005474660079926252,-0.012356268242001534
1783338522769462800,7.903462890625,-0.012718192301690578,-0.010084059089422226,-0.013656423427164555
1783338522779435800,7.913435791015625,-0.012499546632170677,-0.013601562939584255,-0.015537681058049202
1783338522789409000,7.923408935546875,-0.011063570156693459,-0.018487397581338882,-0.01613449491560459
1783338522799381800,7.9333818359375,-0.012024438939988613,-0.022601982578635216,-0.01637178286910057
1783338522809354800,7.943354736328125,-0.010583136230707169,-0.026702450588345528,-0.016685236245393753
1783338522819327700,7.95332763671875,-0.010024670511484146,-0.02918744646012783,-0.018911639228463173
1783338522829301800,7.9633017578125,-0.010297644883394241,-0.03015097789466381,-0.01984880492091179
1783338522839275000,7.97327490234375,-0.008160457946360111,-0.02960183471441269,-0.01907142996788025
1783338522849248000,7.983248046875,-0.008478439413011074,-0.03008812665939331,-0.017891382798552513
1783338522859220700,7.993220703125,-0.006525010801851749,-0.02865135297179222,-0.020593691617250443
1783338522869193700,8.00319384765625,-0.004480502102524042,-0.029409287497401237,-0.022214224562048912
1783338522879166700,8.013166748046874,-0.0016106797847896814,-0.03272439166903496,-0.023840351030230522
1783338522889140000,8.023139892578126,-0.0024655545130372047,-0.0388784222304821,-0.027872644364833832
1783338522899113000,8.033113037109375,-0.0015795208746567369,-0.0428348146378994,-0.030361900106072426
1783338522909085700,8.043085693359375,-0.0034764904994517565,-0.04236769676208496,-0.033553965389728546
1783338522919058700,8.05305859375,-0.0037827540654689074,-0.044620197266340256,-0.03169188275933266
1783338522929032000,8.063031982421874,-0.003497795667499304,-0.04205743968486786,-0.0315890833735466
1783338522939006000,8.073005859375,-0.0034820830915123224,-0.04175516963005066,-0.03259815648198128
1783338522948979000,8.08297900390625,-0.0051745218224823475,-0.04132693260908127,-0.031615450978279114
1783338522958952000,8.092951904296875,-0.007367102429270744,-0.035826705396175385,-0.03466050699353218
1783338522968924700,8.102924560546874,-0.007979629561305046,-0.02852431870996952,-0.03928561881184578
1783338522978898000,8.11289794921875,-0.007006510626524687,-0.027109116315841675,-0.03917935863137245
1783338522988871000,8.122870849609376,-0.008705074898898602,-0.028311798349022865,-0.040998298674821854
1783338522998844000,8.132843994140625,-0.012736301869153976,-0.030823959037661552,-0.04142147675156593
1783338523008816600,8.142816650390625,-0.014083861373364925,-0.026951989158988,-0.03951065614819527
1783338523018790000,8.152789794921874,-0.013393037021160126,-0.02407151460647583,-0.038052842020988464
1783338523028763000,8.162762939453126,-0.014791728928685188,-0.02220730111002922,-0.0350746288895607
1783338523038736000,8.17273583984375,-0.014346448704600334,-0.021873073652386665,-0.030895065516233444
1783338523048710000,8.1827099609375,-0.013001818209886551,-0.021044565364718437,-0.027292607352137566
1783338523058683000,8.192682861328125,-0.016952086240053177,-0.02166641317307949,-0.022759107872843742
1783338523068655600,8.202655517578124,-0.013394901528954506,-0.02009088732302189,-0.019107647240161896
1783338523078628900,8.21262890625,-0.012850550934672356,-0.0179358571767807,-0.01619175262749195
1783338523088601900,8.222601806640625,-0.012491290457546711,-0.014429805800318718,-0.014653777703642845
1783338523098574800,8.232574951171875,-0.013367470353841782,-0.014870825223624706,-0.010963435284793377
1783338523108547800,8.2425478515625,-0.012558402493596077,-0.010914166457951069,-0.004926847759634256
1783338523118520800,8.252520751953124,-0.009808688424527645,-0.009170861914753914,-0.0008157262345775962
1783338523128493800,8.262493896484376,-0.007312241476029158,-0.006090915761888027,0.004049070179462433
1783338523138466800,8.272466796875,-0.004580636974424124,-0.0027108315844088793,0.007130081299692392
1783338523148439800,8.282439697265625,-0.002522812457755208,-0.003638410707935691,0.01275627501308918
1783338523158413800,8.292413818359375,0.0012650014832615852,-0.0012128035305067897,0.016435697674751282
1783338523168386800,8.30238671875,0.004763329867273569,0.001526523963548243,0.0147445909678936
1783338523178359800,8.31235986328125,0.005787315312772989,0.0007605988066643476,0.010844391770660877
1783338523188332800,8.322332763671875,0.008391087874770164,-0.0011851066956296563,0.0067543089389801025
1783338523198305800,8.332305908203125,0.006280532572418451,-0.00015446334145963192,-0.0002993392990902066
1783338523208278800,8.34227880859375,0.003275954397395253,-0.00045912896166555583,-0.006620085798203945
1783338523218252000,8.352251953125,0.00001944107498275116,-0.005090366117656231,-0.01293337531387806
1783338523228224800,8.362224853515626,-0.007159109693020582,-0.008372445590794086,-0.015563513152301311
1783338523238197800,8.37219775390625,-0.010083260014653206,-0.0065500447526574135,-0.01810550130903721
1783338523248170800,8.382170654296875,-0.015502792783081532,-0.010146377608180046,-0.022667229175567627
1783338523258144000,8.39214404296875,-0.02088104747235775,-0.014378407038748264,-0.02346138283610344
1783338523268118000,8.402117919921874,-0.02598472870886326,-0.012104333378374577,-0.026137860491871834
1783338523278090800,8.4120908203125,-0.027941087260842323,-0.011933092027902603,-0.02774960547685623
1783338523288063700,8.422063720703125,-0.029465479776263237,-0.01076929084956646,-0.027092870324850082
1783338523298036700,8.43203662109375,-0.03232651576399803,-0.009865413419902325,-0.024163659662008286
1783338523308010000,8.442010009765625,-0.027845213189721107,-0.014993863180279732,-0.015670837834477425
1783338523317983200,8.451983154296874,-0.02815334126353264,-0.023027554154396057,-0.008016381412744522
1783338523327956200,8.461956298828126,-0.03284130245447159,-0.027721377089619637,-0.003472229465842247
1783338523337929000,8.471928955078125,-0.028009796515107155,-0.02630697190761566,0.0051966262981295586
1783338523347902000,8.48190185546875,-0.025114940479397774,-0.02761884406208992,0.0037979339249432087
1783338523357875200,8.491875244140624,-0.022171348333358765,-0.03014644980430603,-0.00041492050513625145
1783338523367848200,8.50184814453125,-0.02051938883960247,-0.02894003875553608,-0.0036663739010691643
1783338523377822200,8.511822265625,-0.017556089907884598,-0.025474466383457184,-0.005623264703899622
1783338523387795000,8.521794921875,-0.014570953324437141,-0.022731943055987358,-0.007514907978475094
1783338523397768000,8.531767822265625,-0.01179487444460392,-0.018151840195059776,-0.009604956954717636
1783338523407741200,8.5417412109375,-0.009869675152003765,-0.010524545796215534,-0.012546151876449585
1783338523417714200,8.551714111328126,-0.004962800536304712,-0.010636931285262108,-0.01124919205904007
1783338523427687200,8.561687255859376,0.00008016114588826895,-0.010891263373196125,-0.009129582904279232
1783338523437660000,8.571659912109375,0.0029648973140865564,-0.009464342147111893,-0.008255000226199627
1783338523447633200,8.581633056640625,0.006587062496691942,-0.006618221756070852,-0.005104480776935816
1783338523457606100,8.591606201171874,0.008734103292226791,-0.00824035331606865,-0.007644870318472385
1783338523467579100,8.6015791015625,0.009592972695827484,-0.010823353193700314,-0.0062887887470424175
1783338523477552000,8.61155224609375,0.007083475589752197,-0.012340289540588856,-0.00826964806765318
1783338523487526100,8.621526123046875,0.005511678289622068,-0.012998356483876705,-0.008419849909842014
1783338523497499000,8.631498779296875,0.006929811555892229,-0.017532920464873314,-0.00683047529309988
1783338523507472100,8.64147216796875,0.005241101142019033,-0.020305538550019264,-0.0070576430298388
1783338523517445000,8.651445068359376,0.0021997711155563593,-0.0245538130402565,-0.003984888084232807
1783338523527418000,8.661418212890625,0.0034645062405616045,-0.02828596718609333,0.0011464908020570874
1783338523537391000,8.67139111328125,-0.0005896238726563752,-0.029887324199080467,0.0024567660875618458
1783338523547364000,8.681364013671875,-0.0028605014085769653,-0.031317975372076035,0.0033153691329061985
1783338523557337000,8.691337158203124,-0.004040548112243414,-0.03317340090870857,0.005053880624473095
1783338523567310000,8.70131005859375,-0.002782204421237111,-0.0324290469288826,0.0032583775464445353
1783338523577283000,8.711282958984375,-0.006400641519576311,-0.029354693368077278,0.003431216813623905
1783338523587256300,8.72125634765625,-0.005695968866348267,-0.025169001892209053,0.0037148434203118086
1783338523597229000,8.73122900390625,-0.008414790034294128,-0.021413413807749748,0.003215766977518797
1783338523607203000,8.741203125,-0.008441953919827938,-0.015589346177875996,0.001832787413150072
1783338523617176000,8.751176025390626,-0.00797377061098814,-0.015051387250423431,-0.0036661075428128242
1783338523627149000,8.761149169921875,-0.009140235371887684,-0.010759437456727028,-0.007149522192776203
1783338523637122000,8.7711220703125,-0.009543437510728836,-0.005647233221679926,-0.014606373384594917
1783338523647095000,8.781094970703125,-0.01242391299456358,-0.00021837920940015465,-0.021103421226143837
1783338523657068000,8.791068115234374,-0.01155678741633892,0.0043867588974535465,-0.0258686151355505
1783338523667041000,8.801041015625,-0.014327273704111576,0.011455853469669819,-0.02857039123773575
1783338523677014000,8.811013916015625,-0.01635580323636532,0.013174124993383884,-0.028190625831484795
1783338523686987300,8.8209873046875,-0.01722053252160549,0.017197895795106888,-0.02798422984778881
1783338523696960000,8.8309599609375,-0.018685270100831985,0.01836009882390499,-0.02412211336195469
1783338523706933000,8.84093310546875,-0.01926317624747753,0.018026670441031456,-0.019449064508080482
1783338523716907000,8.850906982421876,-0.019419504329562187,0.018079401925206184,-0.014094780199229717
1783338523726880000,8.8608798828125,-0.019703663885593414,0.01852814480662346,-0.006533799227327108
1783338523736853200,8.870853271484375,-0.018085526302456856,0.013649232685565948,0.0000881506348378025
1783338523746826200,8.880826171875,-0.01465564128011465,0.007802262902259827,0.006828877609223127
1783338523756799000,8.890799072265626,-0.010645986534655094,0.0013664679136127234,0.010823885910212994
1783338523766772000,8.90077197265625,-0.007178816944360733,-0.004530303180217743,0.01600906066596508
1783338523776745000,8.910744873046875,-0.004543086513876915,-0.009497631341218948,0.018489794805645943
1783338523786718200,8.92071826171875,-0.0008167914929799736,-0.011892878450453281,0.017119064927101135
1783338523796691200,8.930691162109374,0.00021225394448265433,-0.010901116766035557,0.01684715785086155
1783338523806664000,8.940663818359376,0.0006412891671061516,-0.012473180890083313,0.015028750523924828
1783338523816637000,8.950636962890625,0.0009536779834888875,-0.012228170409798622,0.010281932540237904
1783338523826610200,8.960610107421875,-0.00392736354842782,-0.008128766901791096,0.0062429821118712425
1783338523836584200,8.970584228515625,-0.0049612028524279594,-0.007536213379353285,-0.004356931429356337
1783338523846557200,8.98055712890625,-0.008518919348716736,-0.002139317337423563,-0.012012721039354801
1783338523856530200,8.9905302734375,-0.011261975392699242,-0.0001699096756055951,-0.023315975442528725
1783338523866503000,9.0005029296875,-0.01344416942447424,0.004080228973180056,-0.03250334784388542
1783338523876476200,9.01047607421875,-0.01762826181948185,0.002095108851790428,-0.03614282235503197
1783338523886449200,9.02044921875,-0.018808841705322266,-0.0001661812566453591,-0.03707147017121315
1783338523896422100,9.030422119140624,-0.02008769102394581,-0.005222725216299295,-0.03627784550189972
1783338523906395100,9.04039501953125,-0.020127106457948685,-0.009023589082062244,-0.033555563539266586
1783338523916368100,9.0503681640625,-0.018128670752048492,-0.013917413540184498,-0.02906600572168827
1783338523926341000,9.060341064453125,-0.018581140786409378,-0.01799924112856388,-0.02238386869430542
1783338523936314000,9.070314208984374,-0.016870060935616493,-0.02532293274998665,-0.017848504707217216
1783338523946287000,9.080287109375,-0.017231184989213943,-0.03333345428109169,-0.013978932052850723
1783338523956261000,9.09026123046875,-0.014535799622535706,-0.035407524555921555,-0.015034076757729053
1783338523966233900,9.10023388671875,-0.01474405825138092,-0.031611453741788864,-0.014917963184416294
1783338523976207000,9.11020703125,-0.014034059830009937,-0.029412750154733658,-0.015545137226581573
1783338523986180000,9.12018017578125,-0.010132795199751854,-0.025075525045394897,-0.013228453695774078
1783338523996153000,9.130153076171876,-0.009678459726274014,-0.021630460396409035,-0.015421832911670208
1783338524006126000,9.1401259765625,-0.008356200531125069,-0.01864718832075596,-0.01503860391676426
1783338524016099000,9.15009912109375,-0.007867510430514812,-0.014012222178280354,-0.015005048364400864
1783338524026072000,9.160072021484375,-0.007228618022054434,-0.007692540530115366,-0.014024206437170506
1783338524036045000,9.170045166015624,-0.008008125238120556,-0.004148139618337154,-0.013552560470998287
1783338524046018000,9.18001806640625,-0.007591607049107552,-0.004012584686279297,-0.014340057037770748
1783338524055991300,9.1899912109375,-0.007131678983569145,-0.001913481275551021,-0.01799764297902584
1783338524065965000,9.199965087890625,-0.0070432620123028755,-0.0033720945939421654,-0.017242636531591415
1783338524075938000,9.20993798828125,-0.008684834465384483,0.0016178702935576439,-0.01636752113699913
1783338524085911000,9.2199111328125,-0.010035590268671513,0.00407543545588851,-0.01341620646417141
1783338524095884000,9.229884033203126,-0.01161697506904602,0.005021656397730112,-0.00974610447883606
1783338524105857000,9.23985693359375,-0.01158927846699953,0.0054967645555734634,-0.005963882897049189
1783338524115830300,9.249830322265625,-0.012145079672336578,0.006291984114795923,-0.004994492046535015
1783338524125803000,9.259802978515625,-0.014023673720657825,0.00595615990459919,-0.0038184402510523796
1783338524135776000,9.26977587890625,-0.013608752749860287,0.007649663835763931,-0.0009480853332206607
1783338524145749000,9.2797490234375,-0.015360048040747643,0.00947712454944849,-0.003114300547167659
1783338524155722200,9.28972216796875,-0.014327540062367916,0.0073596457950770855,-0.0062368568032979965
1783338524165695200,9.2996953125,-0.014870292507112026,0.006994526367634535,-0.009158611297607422
1783338524175668000,9.30966796875,-0.01565086469054222,0.004283694550395012,-0.0118489358574152
1783338524185642000,9.31964208984375,-0.012939234264194965,0.005092762876302004,-0.0121264373883605
1783338524195643100,9.32964306640625,-0.011149589903652668,0.0019049590919166803,-0.013821539469063282
1783338524205588200,9.339588134765625,-0.010926417075097561,-0.00006125270738266408,-0.013617541640996933
1783338524215561200,9.349561279296875,-0.00771837355569005,-0.0008338357438333333,-0.012940033338963985
1783338524225534200,9.3595341796875,-0.007480553351342678,-0.0014833806781098247,-0.011356784030795097
1783338524235507000,9.3695068359375,-0.006164418999105692,-0.0010455570882186294,-0.011679825372993946
1783338524245480000,9.37947998046875,-0.005787315312772989,-0.0014740596525371075,-0.010131463408470154
1783338524255453200,9.389453125,-0.003263703780248761,-0.0020245350897312164,-0.00971680972725153
1783338524265426200,9.39942626953125,-0.004766792058944702,-0.004608067683875561,-0.009754359722137451
1783338524275399000,9.40939892578125,-0.004414722323417664,-0.007220362313091755,-0.009761017747223377
1783338524285372000,9.419371826171876,-0.005403021350502968,-0.010885670781135559,-0.00965369213372469
1783338524295346000,9.429345947265626,-0.006000368390232325,-0.012631638906896114,-0.009675264358520508
1783338524305319200,9.439319091796875,-0.004794755019247532,-0.01552409864962101,-0.010728810913860798
1783338524315292200,9.449292236328125,-0.007051517721265554,-0.018334532156586647,-0.010893926955759525
1783338524325264600,9.4592646484375,-0.007993211969733238,-0.019846143200993538,-0.011095527559518814
1783338524335237600,9.469237548828126,-0.007238738238811493,-0.020743360742926598,-0.00977513287216425
1783338524345211000,9.4792109375,-0.009044894017279148,-0.021682126447558403,-0.008287757635116577
1783338524355183600,9.48918359375,-0.007911186665296555,-0.01998942159116268,-0.008246744982898235
1783338524365156600,9.499156494140625,-0.010036388412117958,-0.018002169206738472,-0.010546917095780373
1783338524375129600,9.509129638671874,-0.00920228660106659,-0.017776867374777794,-0.012583170086145401
1783338524385102800,9.519102783203126,-0.007638745009899139,-0.017538513988256454,-0.015629027038812637
1783338524395075800,9.529075927734375,-0.007649930194020271,-0.015337677672505379,-0.014464693143963814
1783338524405048600,9.539048583984375,-0.007640609052032232,-0.013739514164626598,-0.013827664777636528
1783338524415021600,9.549021484375,-0.007978830486536026,-0.014999189414083958,-0.01606631837785244
1783338524424995600,9.55899560546875,-0.007483748719096184,-0.018400046974420547,-0.014220480807125568
1783338524434968800,9.56896875,-0.009524262510240078,-0.019724169746041298,-0.016378439962863922
1783338524444941800,9.57894189453125,-0.007743673399090767,-0.022155635058879852,-0.017010143026709557
1783338524454914800,9.588914794921875,-0.007820372469723225,-0.024111194536089897,-0.01871776208281517
1783338524464887600,9.598887451171874,-0.007997472770512104,-0.021768677979707718,-0.01829671487212181
1783338524474860500,9.608860595703124,-0.009124522097408772,-0.019185945391654968,-0.01901337131857872
1783338524484833800,9.618833740234376,-0.007306648883968592,-0.01782267354428768,-0.01938062161207199
1783338524494806800,9.628806884765625,-0.00941933412104845,-0.017005614936351776,-0.019271166995167732
1783338524504779800,9.63877978515625,-0.012722186744213104,-0.016957677900791168,-0.021992649883031845
1783338524514752500,9.64875244140625,-0.010154366493225098,-0.017498565837740898,-0.024093352258205414
1783338524524725800,9.658725830078126,-0.011808189563453197,-0.022720225155353546,-0.02696716971695423
1783338524534699800,9.66869970703125,-0.015143000520765781,-0.0249016210436821,-0.026851054280996323
1783338524544672800,9.6786728515625,-0.016817329451441765,-0.029713420197367668,-0.02334127575159073
1783338524554645800,9.688645751953125,-0.019535085186362267,-0.0322551429271698,-0.022489862516522408
1783338524564618800,9.69861865234375,-0.02069995179772377,-0.03321201354265213,-0.02196948044002056
1783338524574591700,9.708591796875,-0.022774022072553635,-0.03316035121679306,-0.02424115687608719
1783338524584564700,9.718564697265625,-0.024566063657402992,-0.03117869235575199,-0.028507275506854057
1783338524594537700,9.728537841796875,-0.028479311615228653,-0.02653413824737072,-0.032404012978076935
1783338524604510700,9.7385107421875,-0.03050864115357399,-0.017257018014788628,-0.03645574674010277
1783338524614483700,9.748483642578124,-0.031923845410346985,-0.007479754276573658,-0.04059722647070885
1783338524624456700,9.758456787109376,-0.03098135255277157,0.0007576693315058947,-0.040133036673069
1783338524634429700,9.7684296875,-0.029336582869291306,0.006098372396081686,-0.03947843238711357
1783338524644402700,9.778402587890625,-0.025608690455555916,0.011264106258749962,-0.03827574849128723
1783338524654375700,9.788375732421875,-0.022305572405457497,0.013882526196539402,-0.033901240676641464
1783338524664349700,9.798349609375,-0.017192302271723747,0.013741112314164639,-0.027540814131498337
1783338524674322700,9.80832275390625,-0.013639112934470177,0.012498747557401657,-0.02112632431089878
1783338524684295700,9.818295654296875,-0.009581787511706352,0.00698014535009861,-0.01356534380465746
1783338524694268700,9.8282685546875,-0.004147074185311794,-0.0012596751330420375,-0.004070375580340624
1783338524704241700,9.83824169921875,-0.0012032161466777325,-0.01025849673897028,0.004929511342197657
1783338524714215000,9.84821484375,0.0008431567694060504,-0.01890205219388008,0.011006578803062439
1783338524724187600,9.858187744140626,0.002776345470920205,-0.021695708855986595,0.014699317514896393
1783338524734160600,9.86816064453125,0.0033156354911625385,-0.02232234925031662,0.01786368526518345
1783338524744133600,9.878133544921875,0.0031278827227652073,-0.02075934037566185,0.01738005504012108
1783338524754107000,9.88810693359375,0.0046666571870446205,-0.016039952635765076,0.01739070750772953
1783338524764079900,9.898079833984376,0.0049649314023554325,-0.014650581404566765,0.013822871260344982
1783338524774052600,9.908052490234375,0.005381449591368437,-0.0082704471424222,0.009975935332477093
1783338524784026600,9.918026611328125,0.0014700648607686162,-0.006821686867624521,0.003153715282678604
1783338524793999600,9.92799951171875,0.001960619119927287,-0.0015454323729500175,-0.0022594258189201355
1783338524803972600,9.93797265625,-0.002013616031035781,0.0017928400775417686,-0.008186290971934795
1783338524813945900,9.94794580078125,-0.0029049760196357965,0.0025510420091450214,-0.014123808592557907
1783338524823918800,9.9579189453125,-0.0030128341168165207,0.0014897723449394107,-0.01793931983411312
1783338524833891600,9.9678916015625,-0.0054333810694515705,-0.0015672702575102448,-0.020444288849830627
1783338524843864600,9.977864501953125,-0.008298676460981369,-0.004521781112998724,-0.021642977371811867
1783338524853837800,9.987837890625,-0.008982576429843903,-0.005397694651037455,-0.01925092563033104
1783338524863810800,9.997810791015626,-0.007095193490386009,-0.0075782909989356995,-0.019631491973996162
1783338524873783800,10.00778369140625,-0.008382299914956093,-0.00881852488964796,-0.01816621981561184
1783338524883756500,10.017756591796875,-0.009982060641050339,-0.011465175077319145,-0.014664163812994957
1783338524893729800,10.027729736328125,-0.009354619309306145,-0.012802347540855408,-0.013479855842888355
1783338524903702800,10.037702880859374,-0.009458216838538647,-0.013105948455631733,-0.012081696651875973
1783338524913676800,10.0476767578125,-0.007934622466564178,-0.01680001989006996,-0.011532019823789597
1783338524923649800,10.05764990234375,-0.00845633540302515,-0.01895984262228012,-0.008941829204559326
1783338524933622500,10.06762255859375,-0.00854608416557312,-0.019995013251900673,-0.008505337871611118
1783338524943595500,10.077595458984375,-0.006097839679569006,-0.022036327049136162,-0.006934871431440115
1783338524953568800,10.08756884765625,-0.006262423470616341,-0.02315645106136799,-0.005572930909693241
1783338524963541800,10.097541748046876,-0.007219563238322735,-0.023609455674886703,-0.004563592839986086
1783338524973514800,10.1075146484375,-0.01037620846182108,-0.023447535932064056,-0.004493818152695894
1783338524983487500,10.117487548828125,-0.010434531606733799,-0.02004295028746128,-0.0062794676050543785
1783338524993460700,10.127460693359374,-0.008905344642698765,-0.015141136012971401,-0.007150054909288883
1783338525003433700,10.137433837890624,-0.008975652046501637,-0.005912483669817448,-0.007691209204494953
1783338525013406700,10.14740673828125,-0.008843825198709965,0.0006079996819607913,-0.008050469681620598
1783338525023379700,10.157379638671875,-0.009797769598662853,0.006695985794067383,-0.008766060695052147
1783338525033352700,10.167352783203125,-0.007702927105128765,0.010837467387318611,-0.009316003881394863
1783338525043326700,10.17732666015625,-0.008166583254933357,0.009243299253284931,-0.009187906049191952
1783338525053299700,10.1872998046875,-0.008886968716979027,0.005675462540239096,-0.009865413419902325
1783338525063272700,10.197272705078126,-0.006916761863976717,0.0033153691329061985,-0.009194563142955303
1783338525073245700,10.20724560546875,-0.004346545320004225,-0.00005273058923194185,-0.008242749609053135
1783338525083218700,10.21721875,-0.005028847139328718,-0.0012306467397138476,-0.009266468696296215
1783338525093191700,10.227191650390624,-0.005937517620623112,-0.004378236830234528,-0.005966812372207642
1783338525103164700,10.23716455078125,-0.004069576505571604,-0.006044044159352779,-0.0029113676864653826
1783338525113137700,10.2471376953125,-0.0044173854403197765,-0.006886135786771774,0.0009544769418425858
1783338525123110700,10.257110595703125,-0.00458649592474103,-0.004052266012877226,-0.0003760383406188339
1783338525133084000,10.267083984375,-0.0031433289404958487,-0.003974501509219408,0.0001555285998620093
1783338525143056600,10.277056640625,-0.0037350833881646395,-0.0013856426812708378,-0.0009211873984895647
1783338525153029600,10.287029541015626,-0.004962267819792032,-0.0024370586033910513,-0.004629106726497412
1783338525163002600,10.297002685546875,-0.0036543896421790123,0.000919323181733489,-0.00646562222391367
1783338525172976600,10.3069765625,-0.0029611687641590834,0.0005363606614992023,-0.006607036106288433
1783338525182950000,10.316949951171875,-0.003522030543535948,-0.0016881778137758374,-0.0068030450493097305
1783338525192922600,10.326922607421874,-0.0011150655336678028,-0.0015510249650105834,-0.00857191625982523
1783338525202895600,10.3368955078125,0.0005848301807418466,-0.005913016386330128,-0.005201419815421104
1783338525212868600,10.34686865234375,-0.0014511564513668418,-0.005877596326172352,-0.003724963404238224
1783338525222841900,10.356841796875,0.0014287859667092562,-0.007866178639233112,-0.0007843009079806507
1783338525232814800,10.36681494140625,-0.00008175904804375023,-0.012076903134584427,0.0009456885163672268
1783338525242787600,10.37678759765625,0.000987766426987946,-0.012721920385956764,0.0007864314829930663
1783338525252760600,10.386760498046876,0.00040986048406921327,-0.012285161763429642,0.00023142869758885354
1783338525262733800,10.39673388671875,0.001901230658404529,-0.011825500056147575,0.0003408846096135676
1783338525272706800,10.406706787109375,-0.0011472897604107857,-0.01071256585419178,-0.002350505907088518
1783338525282679800,10.4166796875,-0.0010791128734126687,-0.007092796731740236,-0.0033246902748942375
1783338525292652500,10.426652587890626,-0.002639725338667631,-0.005944442003965378,-0.004866926930844784
1783338525302626600,10.43662646484375,-0.00250496924854815,-0.004247741773724556,-0.006548446603119373
1783338525312599600,10.446599609375,-0.0019949739798903465,-0.0017984326696023345,-0.007653925102204084
1783338525322573300,10.4565732421875,-0.0014777880860492587,-0.0015166702214628458,-0.006880809087306261
1783338525332546300,10.46654638671875,-0.003236006945371628,-0.003722300287336111,-0.0041151163168251514
1783338525342519300,10.476519287109374,-0.0010333064710721374,-0.004466121084988117,-0.00392683083191514
1783338525352492000,10.486491943359376,-0.0005233111442066729,-0.008095476776361465,-0.002831206424161792
1783338525362465000,10.496465087890625,-0.001529453438706696,-0.00800519622862339,-0.0013643373968079686
1783338525372438300,10.506438232421875,-0.0028005801141262054,-0.007280283607542515,-0.003594202222302556
1783338525382411300,10.516411376953124,-0.003358246060088277,-0.006144179031252861,-0.004220843780785799
1783338525392384300,10.52638427734375,-0.00421232171356678,-0.006570018362253904,-0.003674363251775503
1783338525402357000,10.53635693359375,-0.0036493295338004827,-0.005871737375855446,-0.006614493206143379
1783338525412330200,10.546330322265625,-0.004408597014844418,-0.005597432143986225,-0.00692049041390419
1783338525422303200,10.55630322265625,-0.00430127140134573,-0.003650394966825843,-0.007168697193264961
1783338525432276200,10.566276123046874,-0.004020840395241976,-0.003355849301442504,-0.005994509439915419
1783338525442250200,10.576250244140626,-0.003971039317548275,-0.0020596887916326523,-0.005835252348333597
1783338525452223200,10.58622314453125,-0.001273523666895926,-0.005858155433088541,-0.00504029868170619
1783338525462196200,10.5961962890625,-0.001975799212232232,-0.008013984188437462,-0.004299673717468977
1783338525472169200,10.606169189453125,-0.0026312030386179686,-0.007219296880066395,-0.004543619230389595
1783338525482142200,10.61614208984375,-0.002837331732735038,-0.007199323270469904,-0.0018008295446634293
1783338525492115200,10.626115234375,-0.00472498033195734,-0.004421379882842302,0.00086872314568609
1783338525502088200,10.636088134765625,-0.004111388232558966,-0.002659166231751442,0.001002413802780211
1783338525512061200,10.646061279296875,-0.0038900794461369514,-0.0037771612405776978,-0.0002777676854748279
1783338525522034200,10.6560341796875,-0.003954794257879257,-0.0008785768295638263,-0.0012120045721530914
1783338525532007200,10.666007080078124,-0.004733236040920019,0.0011486213188618422,-0.002028796123340726
1783338525541980200,10.675980224609376,-0.004508465528488159,0.0026501116808503866,-0.00436145905405283
1783338525551953400,10.685953369140625,-0.004599279258400202,0.0030836742371320724,-0.004857339430600405
1783338525561926100,10.695926025390625,-0.0036522590089589357,0.004126035608351231,-0.005995574407279491
1783338525571900200,10.705900146484375,-0.0017094830982387066,0.0017246630741283298,-0.007254716940224171
1783338525581873200,10.715873046875,-0.0033420007675886154,-0.0007121292874217033,-0.003993942867964506
1783338525591846100,10.72584619140625,-0.002491120947524905,-0.001115864492021501,-0.0033864756114780903
1783338525601819400,10.7358193359375,-0.002829608740285039,-0.004434163216501474,-0.0012002866715192795
1783338525611792400,10.74579248046875,-0.0020234698895365,-0.00643845833837986,-0.00045034053619019687
1783338525621765000,10.75576513671875,-0.0010937602492049336,-0.0064834654331207275,-0.001660480978898704
1783338525631738000,10.765738037109376,-0.000003462109361862531,-0.006146575789898634,-0.00004314320904086344
1783338525641711400,10.77571142578125,0.00027084347675554454,-0.004715925548225641,-0.0006639260682277381
1783338525651684400,10.785684326171875,0.0016495619202032685,-0.003304982790723443,0.0014215953415259719
1783338525661657000,10.795656982421875,0.0011283813510090113,-0.0003307645965833217,-0.0010905644157901406
1783338525671630000,10.805630126953124,0.00016165387933142483,-0.0004809668753296137,-0.0012173309223726392
1783338525681603000,10.81560302734375,-0.0008298410102725029,-0.0031121699139475822,-0.00008149272616719827
1783338525691576300,10.825576416015625,0.0007054713787510991,-0.005685050040483475,-0.0005518069956451654
1783338525701549300,10.83554931640625,-0.0013334447285160422,-0.010529606603085995,-0.004129231441766024
1783338525711523300,10.8455234375,-0.0038373488932847977,-0.012849219143390656,-0.00603472301736474
1783338525721496000,10.85549609375,-0.005253617651760578,-0.015452725812792778,-0.006657636258751154
1783338525731469000,10.865468994140626,-0.004841360729187727,-0.016052735969424248,-0.006844590418040752
1783338525741442300,10.8754423828125,-0.006855242885649204,-0.017527328804135323,-0.006461095064878464
1783338525751415300,10.885415283203125,-0.009153550490736961,-0.01787513680756092,-0.008375375531613827
1783338525761388300,10.89538818359375,-0.011259046383202076,-0.013668674044311047,-0.008189752697944641
1783338525771361000,10.905361083984374,-0.010369017720222473,-0.010496316477656364,-0.007720503956079483
1783338525781334300,10.915334228515626,-0.010928547941148281,-0.006441654171794653,-0.0086054727435112
1783338525791307300,10.925307373046875,-0.009212672710418701,-0.0028908613603562117,-0.009498696774244308
1783338525801280300,10.9352802734375,-0.010390056297183037,-0.003008040366694331,-0.012230034917593002
1783338525811253200,10.945253173828124,-0.008614260703325272,-0.003876230912283063,-0.013594105839729309
1783338525821226200,10.955226318359376,-0.007852064445614815,-0.00310497940517962,-0.01689935475587845
1783338525831199200,10.96519921875,-0.00824035331606865,-0.002323341788724065,-0.01708284579217434
1783338525841172200,10.975172119140625,-0.006229133810847998,-0.0033662356436252594,-0.01660480909049511
1783338525851146200,10.985146240234375,-0.003460245206952095,-0.0054243262857198715,-0.010330934077501297
1783338525861119200,10.995119140625,-0.0024708807468414307,-0.00833915639668703,-0.007243798114359379
1783338525871092200,11.00509228515625,-0.0013614079216495156,-0.008990565314888954,-0.0029198897536844015
1783338525881065200,11.015065185546876,-0.0024194817524403334,-0.008161257021129131,0.0022485069930553436
1783338525891038200,11.0250380859375,-0.0004442152567207813,-0.008917861618101597,0.005397428758442402
1783338525901011200,11.03501123046875,-0.002058889716863632,-0.01074026245623827,0.007711449172347784
1783338525910984200,11.044984130859374,-0.0033984598703682423,-0.011943478137254715,0.00544403400272131
1783338525920957400,11.05495751953125,-0.004257329273968935,-0.010483799502253532,0.004578772932291031
1783338525930930200,11.06493017578125,-0.006340986583381891,-0.007144995033740997,0.0010064085945487022
1783338525940903200,11.074903076171875,-0.0073141055181622505,-0.002231196267530322,-0.0029550434555858374
1783338525950876200,11.084876220703125,-0.007990814745426178,0.0031260184478014708,-0.005937251262366772
1783338525960849400,11.094849365234374,-0.009033176116645336,0.009037969633936882,-0.008566856384277344
1783338525970822100,11.104822265625,-0.009249424561858177,0.012207929976284504,-0.010756773874163628
1783338525980795100,11.114795166015625,-0.0076211681589484215,0.01564181037247181,-0.01146650593727827
1783338525990769200,11.12476904296875,-0.006964965257793665,0.015910523012280464,-0.011738414876163006
1783338526000742100,11.1347421875,-0.004942560568451881,0.012832707725465298,-0.007774566300213337
1783338526010715100,11.144715087890624,-0.0051926313899457455,0.007555387914180756,-0.005114600993692875
1783338526020688400,11.1546884765625,-0.004165450111031532,0.0006870955694466829,-0.0024549018125981092
1783338526030661000,11.1646611328125,-0.004033623728901148,-0.00526560191065073,-0.0006106628570705652
1783338526040634000,11.174634033203125,-0.0041215079836547375,-0.009999637492001057,-0.003634948516264558
1783338526050607000,11.184607177734375,-0.005023787263780832,-0.01401674933731556,-0.0026724820490926504
1783338526060580400,11.194580322265624,-0.006292783189564943,-0.01534486748278141,-0.004623247776180506
1783338526070553300,11.20455322265625,-0.006143379956483841,-0.01242364663630724,-0.0051958272233605385
1783338526080526000,11.214526123046875,-0.004945490043610334,-0.011239605024456978,-0.006027265917509794
1783338526090499000,11.2244990234375,-0.005242166109383106,-0.008591091260313988,-0.008696286007761955
1783338526100472300,11.234472412109374,-0.005809952039271593,-0.006882140878587961,-0.00845526996999979
1783338526110445300,11.2444453125,-0.004471980035305023,-0.005307413637638092,-0.00878896377980709
1783338526120418300,11.254418212890625,-0.0014199974248185754,-0.005065065808594227,-0.010702977888286114
1783338526130391000,11.26439111328125,-0.002120941411703825,-0.006432066671550274,-0.009350358508527279
1783338526140365000,11.274364990234375,-0.0027387947775423527,-0.007348460145294666,-0.009594304487109184
1783338526150338000,11.284338134765624,-0.0016879114555194974,-0.008448079228401184,-0.007564975414425135
1783338526160311300,11.294311279296876,-0.0026727484073489904,-0.012263856828212738,-0.007386277429759502
1783338526170284300,11.3042841796875,-0.0013709953054785728,-0.012160525657236576,-0.008279235102236271
1783338526180257300,11.31425732421875,-0.0036645096261054277,-0.013765879906713963,-0.009521333500742912
1783338526190230000,11.32422998046875,-0.004548679105937481,-0.014029799029231071,-0.010102168656885624
1783338526200203300,11.334203369140624,-0.006359362509101629,-0.013178120367228985,-0.01007793378084898
1783338526210176300,11.34417626953125,-0.0057191383093595505,-0.010342119261622429,-0.009531719610095024
1783338526220149200,11.354149169921875,-0.007684817537665367,-0.007229949813336134,-0.009517339058220387
1783338526230122200,11.364122314453125,-0.007865113206207752,-0.007731422781944275,-0.010690460912883282
1783338526240095200,11.37409521484375,-0.008521316573023796,-0.008732505142688751,-0.010214554145932198
1783338526250068200,11.384068115234374,-0.006868292577564716,-0.008312524296343327,-0.01164413895457983
1783338526260041200,11.394041259765626,-0.007610515225678682,-0.009574596770107746,-0.011122692376375198
1783338526270014200,11.40401416015625,-0.007702660746872425,-0.007656321860849857,-0.009637713432312012
1783338526279988200,11.41398828125,-0.006794789340347052,-0.008686698973178864,-0.009490174241364002
1783338526289961200,11.423961181640625,-0.007412376347929239,-0.009873935952782631,-0.006776413414627314
1783338526299934200,11.433934326171874,-0.006148706190288067,-0.00998951680958271,-0.006339122075587511
1783338526309907200,11.4439072265625,-0.005940180737525225,-0.00965795386582613,-0.007474694401025772
1783338526319880200,11.453880126953125,-0.004589159041643143,-0.009821471758186817,-0.006895456463098526
1783338526329853000,11.46385302734375,-0.006061088293790817,-0.010324808768928051,-0.008493886329233646
1783338526339826000,11.473825927734374,-0.004061587154865265,-0.007440339308232069,-0.006939931306988001
1783338526349799000,11.483798828125,-0.0041057956404984,-0.006587861571460962,-0.006669354159384966
1783338526359772000,11.49377197265625,-0.005674929823726416,-0.0037918086163699627,-0.005144428461790085
1783338526369745000,11.503744873046875,-0.005595034919679165,-0.004740160424262285,-0.0043444144539535046
1783338526379718000,11.5137177734375,-0.004227768164128065,-0.0025651566684246063,-0.0018487664638087153
1783338526389691000,11.52369091796875,-0.005884254351258278,0.00040559942135587335,-0.0007930893916636705
1783338526399663900,11.533663818359376,-0.007511712145060301,0.0006205165409483016,0.0017222663154825568
1783338526409636900,11.543636962890625,-0.006174006499350071,0.002034388715401292,0.0015670040156692266
1783338526419609900,11.55360986328125,-0.006914098747074604,0.004240551497787237,0.0002657834847923368
1783338526429584000,11.563583984375,-0.006843791343271732,0.0003802994033321738,-0.0030272151343524456
1783338526439556900,11.573556884765624,-0.004993427079170942,-0.00040480049210600555,-0.005402754992246628
1783338526449529900,11.58352978515625,-0.005617938470095396,-0.003132942598313093,-0.010071275755763054
1783338526459502800,11.5935029296875,-0.00606455048546195,-0.0020005665719509125,-0.012425776571035385
1783338526469476000,11.60347607421875,-0.007577758282423019,-0.0034432008396834135,-0.014620753936469555
1783338526479448800,11.61344873046875,-0.006427539046853781,-0.0029031119775027037,-0.015868712216615677
1783338526489421800,11.623421875,-0.003915379289537668,-0.005570534151047468,-0.015304121188819408
1783338526499394800,11.633394775390625,-0.0027470507193356752,-0.007749265991151333,-0.010981278494000435
1783338526509368000,11.6433681640625,-0.0031382690649479628,-0.010400176979601383,-0.013587980531156063
1783338526519341000,11.653341064453125,-0.0001637844106880948,-0.010076869279146194,-0.010274741798639297
1783338526529313800,11.663313720703124,0.0005289037944748998,-0.012524580582976341,-0.006932741031050682
1783338526539286800,11.673286865234376,-0.00019228023302275687,-0.013347763568162918,-0.0036573191173374653
1783338526549259800,11.683259765625,0.0006993460701778531,-0.016748886555433273,0.0017781927017495036
1783338526559233000,11.69323291015625,-0.00021385183208622038,-0.02346830815076828,0.001680454588495195
1783338526569205800,11.703205810546875,0.00148125016130507,-0.026500049978494644,0.002031991956755519
1783338526579178800,11.7131787109375,-0.0008586031035520136,-0.030822893604636192,0.00013315805699676275
1783338526589152800,11.72315283203125,-0.001425057533197105,-0.02845720760524273,-0.003236539661884308
1783338526599125800,11.733125732421875,-0.0026130937039852142,-0.02779887430369854,-0.005835252348333597
1783338526609099000,11.74309912109375,-0.0028959212359040976,-0.025290442630648613,-0.006427805405110121
1783338526619072000,11.753072021484375,-0.0038133803755044937,-0.021826734766364098,-0.011888884007930756
1783338526629044700,11.763044677734374,-0.003198456484824419,-0.020187560468912125,-0.014417288824915886
1783338526639017700,11.773017822265626,-0.003355582943186164,-0.018382735550403595,-0.014429539442062378
1783338526648991000,11.782990966796875,-0.005148156546056271,-0.015081747435033321,-0.012891563586890697
1783338526658964000,11.7929638671875,-0.0049337721429765224,-0.013382917270064354,-0.01329929381608963
1783338526668937000,11.80293701171875,-0.006160157732665539,-0.01264175958931446,-0.010953581891953945
1783338526678909700,11.81290966796875,-0.006542054936289787,-0.011753861792385578,-0.008620652370154858
1783338526688883000,11.822883056640626,-0.008165251463651657,-0.01384204626083374,-0.0038951393216848373
1783338526698856000,11.83285595703125,-0.008193748071789742,-0.015312377363443375,-0.00478436890989542
1783338526708829000,11.842828857421875,-0.007510913070291281,-0.015994945541024208,-0.002922020386904478
1783338526718802000,11.852802001953124,-0.007611047942191362,-0.015321698039770126,-0.00227939966134727
1783338526728775000,11.86277490234375,-0.006265618838369846,-0.011465707793831825,-0.003492203075438738
1783338526738748000,11.872747802734375,-0.00737402681261301,-0.007324757985770702,-0.0026381274219602346
1783338526748722000,11.882721923828125,-0.005829127039760351,-0.003762513864785433,-0.0027395938523113728
1783338526758695000,11.89269482421875,-0.003073021536692977,0.00390259618870914,-0.003053047927096486
1783338526768668000,11.90266796875,-0.0008591357618570328,0.002907373011112213,-0.0023816649336367846
1783338526778641000,11.912640869140626,0.000050600061513250694,0.0021286646369844675,-0.0005451490869745612
