time,seconds_elapsed,z,y,x
1783337825773841200,0.080841064453125,0.5745131213694811,-0.06679477763921023,-0.7830887979187071
1783337825783813000,0.090813232421875,0.6232195768713951,-0.07972849349230528,-0.7487558087494224
1783337825793786000,0.1007861328125,0.45471243746876716,-0.21926906612962482,-0.6772560682896525
1783337825803759000,0.110759033203125,0.28272213212549685,-0.47245852203965183,-0.5726415553439408
1783337825813732000,0.120732177734375,0.2440893268704414,-0.4943114574074745,-0.7169896013282239
1783337825823704000,0.1307041015625,0.06716624130010604,-0.3966901643499732,-0.7606544824663549
1783337825833677000,0.140677001953125,0.0009510171145200729,-0.1731824377372861,-0.8698173063661903
1783337825843650000,0.150650146484375,0.1337351012289524,0.04652560433149337,-0.7752065202362834
1783337825853623000,0.160623046875,0.08043138106465339,0.17971797698587177,-0.6536595771901309
1783337825863595000,0.170594970703125,-0.0014016834914684295,0.1414899531394243,-0.6227705179296433
1783337825873568000,0.180568115234375,-0.06622574557960033,0.03926613472253084,-0.5646925691008567
1783337825883541000,0.190541015625,-0.10820260056555271,0.0338300811484456,-0.6351356401145458
1783337825893514200,0.20051416015625,-0.4254162003576755,-0.10881254915744065,-0.3634026656456291
1783337825903487200,0.2104873046875,-0.7780190934389829,-0.2905892122387886,0.08154270330742001
1783337825913459000,0.220458984375,-0.9310030850172042,-0.30136604231894015,0.3234513251379132
1783337825923432200,0.23043212890625,-0.9680413145571947,0.02153086380660534,0.43218993227630853
1783337825933405200,0.2404052734375,-0.9069763127416371,0.5476908731564879,0.523813884615153
1783337825943378200,0.250378173828125,-0.7699059296101332,1.0132032293200492,0.5991361059725284
1783337825953350100,0.26035009765625,-0.6174035840690135,1.300248485341668,0.6425722198560834
1783337825963323100,0.2703232421875,-0.5404781652987003,1.3168050678670407,0.5902306227222085
1783337825973296000,0.280296142578125,-0.38028818786442276,1.0291267746388912,0.4220603140585124
1783337825983269000,0.29026904296875,-0.19135902267992497,0.6167237851113081,0.21971564085334538
1783337825993242000,0.3002421875,-0.04050035269260406,0.28775837272703647,0.0133924194060266
1783337826003214000,0.310214111328125,-0.07519348041117191,0.09640928691923618,-0.20196663367301224
1783337826013187000,0.32018701171875,-0.14158406116366384,0.06303717867136001,-0.3804300805531442
1783337826023160000,0.33016015625,-0.1947071640640497,0.4675312947705388,-0.39526904550567266
1783337826033133000,0.340133056640625,-0.27337211997807026,1.1217436835378407,-0.27758959154263135
1783337826043105000,0.35010498046875,-0.17266601264774797,1.3668278666645288,-0.2192439316883683
1783337826053078300,0.360078369140625,0.15849369491040705,1.0209317777454852,-0.4414047737367451
1783337826063051000,0.370051025390625,0.7392296363174915,1.1903744444325566,-0.4931039813138544
1783337826073024000,0.38002392578125,1.1579384479910135,1.1507996821522712,-0.6621605712927877
1783337826082997000,0.3899970703125,1.3813620034515857,1.224803368256986,-0.6820035550776868
1783337826092969200,0.39996923828125,1.174474572250247,1.235247605381906,-0.48401335075497626
1783337826102942000,0.40994189453125,0.7261223174631595,1.462981425257027,-0.08269713403955102
1783337826112915000,0.4199150390625,0.7446627672821283,1.7325433392971754,-0.03615852409601211
1783337826122888200,0.42988818359375,1.2038462126851082,1.8471604830801487,-0.3883220759119838
1783337826132861200,0.439861083984375,1.4578934544682502,1.5314064344465732,-0.8720359322637319
1783337826142833000,0.4498330078125,1.6268050830185412,1.226705694746971,-1.4579878547534346
1783337826152806100,0.45980615234375,1.9450065248042343,1.0868968265622854,-2.0186220883741974
1783337826162779100,0.469779052734375,2.218378644782305,1.0741811373740433,-2.392342296025157
1783337826172752100,0.479752197265625,2.553623575827479,1.095478192424774,-2.2942326349288225
1783337826182724000,0.48972412109375,2.9543039788573977,1.1537851277038453,-1.922005880706012
1783337826192697000,0.499697021484375,3.1640280947893857,1.1591185976862908,-1.619882298018038
1783337826202670000,0.509670166015625,3.150121734511852,1.1420686786860228,-1.378610366655886
1783337826212643000,0.51964306640625,2.9333085371017456,1.1324544626444577,-1.1874676901403813
1783337826222616300,0.5296162109375,2.570228089147806,1.0443146991595624,-0.9515965218432247
1783337826232588000,0.539588134765625,2.5534943964898584,1.2229711843937634,-1.0700715831633656
1783337826242561000,0.54956103515625,3.0083541334748265,1.4319763384014368,-1.1553295076016337
1783337826252534300,0.5595341796875,3.27722543490231,1.5938070687800645,-0.9893012524679302
1783337826262507300,0.56950732421875,3.018085253894329,1.8560747341588137,-0.7910683984957635
1783337826272480000,0.57947998046875,2.650669407084584,2.280727256667614,-0.7403865512676536
1783337826282452200,0.5894521484375,2.295858190304041,2.7177698896721005,-0.4646636303797364
1783337826292425200,0.59942529296875,2.144325566577911,3.1729873540535567,0.03187617060169577
1783337826302398200,0.609398193359375,2.2834289168417454,3.5823084519177675,0.7774839636489749
1783337826312371000,0.619370849609375,2.5761165626645086,4.177704786840081,1.7244173159867524
1783337826322343200,0.62934326171875,2.966642651426792,4.59360204822421,2.5969807792559263
1783337826332316200,0.639316162109375,3.120167910274863,4.5177550723403685,2.775943553960323
1783337826342289200,0.6492890625,3.045413405802846,4.242578533288836,2.355665008752048
1783337826352262100,0.65926220703125,2.970008912989497,4.0751404844224455,1.9250810503676532
1783337826362235100,0.669235107421875,2.8348399795651433,4.1119934205234046,1.9773036972969769
1783337826372207000,0.67920703125,2.9098633641064167,4.263363254903257,2.110678148519993
1783337826382180000,0.68918017578125,2.9208278257131575,4.276211630560457,1.7685440424829721
1783337826392153000,0.699153076171875,2.362490763118863,3.9144001796290278,1.0975158357322214
1783337826402126000,0.7091259765625,1.623950278109312,3.536672197641432,0.5968395194679499
1783337826412099000,0.71909912109375,1.0570242508679628,3.6441704493299123,0.7078250287503004
1783337826422071000,0.729071044921875,0.4049649484813213,4.136745584464073,1.2203262228429317
1783337826432044000,0.7390439453125,-0.4748837033599615,4.667660094864666,1.4940800356149673
1783337826442017000,0.74901708984375,-1.289508187879622,5.097662161707878,1.7769173185527323
1783337826451990000,0.758989990234375,-2.29089852207005,5.180934903678298,1.1288181519687175
1783337826461963300,0.76896337890625,-3.0152471078589556,4.823586861896515,0.17725918565690515
1783337826471935000,0.77893505859375,-3.6247485405012965,4.34357076408416,-1.2135878544986247
1783337826481908000,0.788907958984375,-3.9859699165850877,3.6338179821416734,-2.748800110968947
1783337826491881200,0.798881103515625,-4.300676501992345,2.66900995041728,-3.524074289613962
1783337826501854200,0.808854248046875,-4.84390484278202,2.0347282967835665,-4.14855643376708
1783337826511827000,0.818826904296875,-5.31474423918724,1.5971031877160071,-4.924256728869676
1783337826521799200,0.828799072265625,-5.430294279906153,0.8747399305254221,-6.143230952581763
1783337826531772200,0.838772216796875,-4.587687855744361,0.01517389599531889,-7.5993088820606465
1783337826541745200,0.8487451171875,-3.1637001780092713,-0.9097276572763919,-7.942084208610654
1783337826551718000,0.8587177734375,-2.3292215307235717,-1.419963244524598,-7.369717451620102
1783337826561691100,0.868691162109375,-2.0107371803432703,-1.4425927172228694,-6.630741497802734
1783337826571663000,0.8786630859375,-1.85890703497529,-1.4095385888829826,-5.892289275598525
1783337826581636000,0.888635986328125,-1.7839970476806162,-1.1909347086638211,-5.076984115338325
1783337826591609000,0.898609130859375,-1.8942039738059042,-0.9444722229212522,-4.73517500347197
1783337826601582000,0.90858203125,-1.7207611315667628,-1.477836172300577,-5.281023755893111
1783337826611555000,0.91855517578125,-1.3057085043132304,-2.097090937194228,-5.8369368062108755
1783337826621527300,0.92852734375,-0.7064473106563091,-1.8589175563693046,-6.503690404382348
1783337826631500000,0.9385,-0.3907867855250835,-2.0736621308118104,-6.941560428121686
1783337826641473000,0.94847314453125,-0.2731704599261284,-2.6113971348822114,-6.984978714087605
1783337826651446300,0.9584462890625,0.206532626414299,-3.1841274644881485,-6.956957903739809
1783337826661419300,0.968419189453125,1.1760732396185398,-3.705252110019326,-6.638921297127008
1783337826671391500,0.9783916015625,1.9677076014339923,-3.839465934675932,-6.09454086369276
1783337826681364200,0.9883642578125,2.292936749899387,-3.943441857457161,-5.555204854166507
1783337826691337500,0.99833740234375,2.1157658270478246,-4.034105294200778,-5.322473372134566
1783337826701310500,1.008310546875,1.7187369322627781,-4.3213674078434705,-5.405483663776517
1783337826711283500,1.018283447265625,1.5026082099854945,-4.421854903987049,-5.785018987447023
1783337826721255400,1.02825537109375,1.3384183492600916,-4.759721415707468,-6.418444901034236
1783337826731228400,1.038228515625,1.410325063085556,-4.944621471506357,-6.461711211308836
1783337826741201400,1.048201416015625,1.227207799050212,-4.883309216931462,-6.064278996419906
1783337826751174400,1.05817431640625,1.2286872239530087,-4.923382284122705,-6.276731660532951
1783337826761147400,1.0681474609375,2.1088725604027507,-5.406481442642211,-6.8757929477036
1783337826771119400,1.078119384765625,3.2411142570793627,-6.1775517398566,-6.812857475841045
1783337826781092400,1.08809228515625,4.280583562034368,-6.000352175432443,-6.967859821504354
1783337826791065300,1.0980654296875,5.48093667190671,-5.8113856008470055,-6.968117595657706
1783337826801038600,1.10803857421875,6.110759592565894,-5.803291141718626,-6.293169000592828
1783337826811011300,1.11801123046875,6.5479691065698855,-4.953571670681238,-5.610446848917007
1783337826820983300,1.1279833984375,6.345164560768008,-4.1833448385536665,-4.8864141972094775
1783337826830956500,1.13795654296875,5.10785973059535,-3.8233921672314404,-3.910437413477897
1783337826840929300,1.14792919921875,3.3987089573234317,-3.204160198691487,-3.113791945502162
1783337826850902300,1.15790234375,1.7043588628202675,-2.67042741599977,-1.943476246497035
1783337826860875300,1.167875244140625,-0.08940613015890121,-2.6806021885335443,-0.8953010725170374
1783337826870847500,1.177847412109375,-1.6812462827801704,-1.8642291067808865,1.2142471951901912
1783337826880820200,1.1878203125,-2.56871067032218,-0.13711539131700992,4.984511583346128
1783337826890793200,1.197793212890625,-0.9929659124553203,1.0524936217010021,7.597153165331482
1783337826900766500,1.207766357421875,-0.34722478023953735,1.4518068280309437,7.8222957996696225
1783337826910739500,1.217739501953125,0.5183703783869743,2.0072867476284504,7.197125088730454
1783337826920712400,1.22771240234375,2.1021488051056862,2.197267467692494,6.9729007382810115
1783337826930684400,1.237684326171875,3.779070794945955,-0.14484393974244594,3.663445935425162
1783337826940657400,1.247657470703125,3.737348791503906,-0.19472996041774748,1.9867565852969884
1783337826950630400,1.25763037109375,-0.08213350880742072,1.4182044181585312,1.9494424614250658
1783337826960603400,1.267603271484375,-3.4134804099977014,2.7504426174789667,2.472431147262454
1783337826970576400,1.277576416015625,-4.126973255251348,3.8589310981243847,3.5383179190218446
1783337826980548400,1.28754833984375,-4.047817593210936,4.6413294295608996,4.086653227561712
1783337826990521300,1.297521240234375,-3.0281156495213506,4.638374086886644,4.108680350452661
1783337827000494600,1.30749462890625,-0.9029135933473705,4.363547091925144,4.048634754812717
1783337827010467300,1.31746728515625,1.563410176950693,3.7842064042687413,4.142624121108651
1783337827020440300,1.3274404296875,3.1685356353417036,3.106725660377741,4.326641548854113
1783337827030412500,1.33741259765625,3.582029634976387,2.5733587883889673,3.844487562230229
1783337827040385500,1.347385498046875,3.3967958171784876,1.9079478369981049,2.410738953459263
1783337827050358300,1.357358154296875,3.0072692608475684,0.9560364039868116,-0.14372691841125487
1783337827060331300,1.367331298828125,2.5776246291399,-0.4563075977057218,-3.4776270112156866
1783337827070304500,1.377304443359375,1.9741219985209404,-1.3147054652392864,-6.519480094188451
1783337827080276500,1.3872763671875,0.61177332309708,-2.1368056924670933,-8.303043426626921
1783337827090249200,1.397249267578125,-0.18402707235664129,-2.9404625005096197,-9.348309435161948
1783337827100222500,1.407222412109375,0.0020189386069774627,-3.691746147236228,-10.128118334627151
1783337827110195500,1.417195556640625,-0.2424412674024701,-4.559426806899905,-10.805952129739522
1783337827120168400,1.42716845703125,-1.169614272737503,-5.520963561868667,-7.756204494124651
1783337827130141400,1.437141357421875,-1.0432138983108104,-5.053169524508714,-6.099777010780572
1783337827140113400,1.447113525390625,-0.3861353064574301,-3.8270676408737896,-5.866213754099607
1783337827150086400,1.45708642578125,-0.31170959554836153,-1.9478695130199193,-4.514867534205317
1783337827160059400,1.467059326171875,-0.9637469783641397,-1.3151894493639469,-2.528804776391387
1783337827170032400,1.477032470703125,-1.543754020974785,-2.061369050949812,-1.5279185923308134
1783337827180005400,1.48700537109375,-1.3533011533543466,-3.034715486177802,-0.623618805322051
1783337827189977300,1.496977294921875,-0.801424811206758,-2.4849486835300922,0.5957599075376987
1783337827199950300,1.506950439453125,-0.9657140406534075,-2.003086957851052,1.5100146868497133
1783337827209923600,1.516923583984375,-1.1410416737258433,-2.416221768784523,1.8678496353656053
1783337827219896300,1.526896240234375,-0.34257542006373404,-2.5031191309928893,2.0169716908186675
1783337827229869300,1.536869384765625,-0.11065554667562245,-2.25583656103909,1.7612620687812566
1783337827239842300,1.54684228515625,-0.49932168678492306,-1.5706769530832767,1.3887567898780107
1783337827249814300,1.556814208984375,-0.5905076860979199,-0.7136778464317322,1.5037480276703834
1783337827259787300,1.566787353515625,-0.697217417757213,0.37909108703434463,2.567960144215822
1783337827269760300,1.57676025390625,-0.5665773599341511,1.3295078975737094,4.542006301021575
1783337827279733500,1.5867333984375,-0.8837173099681734,2.7347417750000953,6.500009085521102
1783337827289706500,1.59670654296875,-0.5991957272052765,4.137392650195956,7.625995813456178
1783337827299678200,1.60667822265625,-1.174621579505503,3.656593585312366,6.900141207018494
1783337827309651500,1.6166513671875,-1.817640081824362,2.318802428039908,5.32981379802525
1783337827319624400,1.62662451171875,-1.7474670599237083,1.4587170458108185,4.893240828359127
1783337827329597400,1.636597412109375,-1.441347101075947,0.46273675397038455,4.295144586828351
1783337827339570200,1.646570068359375,-1.613929819354415,0.4771621696859598,3.822350549224019
1783337827349543400,1.65654345703125,-2.105754136121273,0.9128986885279416,2.9176795908153057
1783337827359515400,1.666515380859375,-2.250100063213706,1.7147148371398448,1.9140151742130518
1783337827369488400,1.67648828125,-1.1115738794401286,2.048376882907748,0.7335211955428123
1783337827379461400,1.68646142578125,0.644836949917674,1.7211439934045076,-0.7260755557119846
1783337827389434400,1.696434326171875,1.8352967345461249,1.1471101799845695,-1.780155569821596
1783337827399407400,1.706407470703125,2.129485724842548,0.5359773467481136,-1.50291508397758
1783337827409379600,1.716379638671875,2.1041008159562944,-0.13159458206892014,-1.3038123153030872
1783337827419352300,1.726352294921875,1.3686430993929504,-0.42006139532625675,-1.9260341133087873
1783337827429325300,1.7363251953125,0.29387451751977206,-0.3000660656362772,-2.432541912205517
1783337827439298300,1.74629833984375,-0.473808475343883,-0.058925651699304575,-2.934047957292199
1783337827449271600,1.756271484375,-1.1317971677795051,0.11350479862689972,-3.2393913788095117
1783337827459244500,1.76624462890625,-1.2409610145926475,0.3113239572316408,-3.3358661321803926
1783337827469216300,1.77621630859375,-0.8487012339055537,0.408320688650012,-3.0451939178332683
1783337827479189500,1.786189453125,-0.4388976132214069,0.474291582685709,-2.197502737753093
1783337827489162500,1.79616259765625,-0.1865703270986676,0.8875947359234094,-1.3372899297520517
1783337827499135500,1.806135498046875,0.09596899580582975,1.2947837901949881,-0.4853326166599989
1783337827509108200,1.816108154296875,0.31557752302289005,1.4090887992888688,0.30804128229916095
1783337827519081500,1.82608154296875,0.34694676701575516,1.5513088202685117,0.8221013962715864
1783337827529053400,1.836053466796875,0.6297124460220337,1.7126783628761768,0.8379644435748458
1783337827539026400,1.8460263671875,0.9863371419653296,1.7991075230509042,0.6684940120980143
1783337827548999400,1.85599951171875,1.1788786524280905,1.7718460066378117,0.5186427655875683
1783337827558972400,1.865972412109375,1.2940711118809878,1.7230904512971639,0.3326850174292922
1783337827568945400,1.8759453125,1.4303995906040072,1.7419208239734172,0.14609890823960303
1783337827578917400,1.88591748046875,1.511062588467449,1.6961749718427657,-0.05842471643984318
1783337827588890400,1.895890380859375,1.2791044288955629,1.4123907634437083,-0.2601873519733548
1783337827598863400,1.90586328125,1.102614035654068,0.9833370833665132,-0.2573445297628641
1783337827608836400,1.91583642578125,1.0243101681374014,-0.06962357132434845,0.09069324735999107
1783337827618809300,1.925809326171875,1.0538787924490869,-0.8189905707746744,0.355624871250987
1783337827628782300,1.9357822265625,1.1082089330516756,-0.9638386021703481,0.30395898142158984
1783337827638754300,1.94575439453125,1.2539023292303084,-0.9486194057285785,0.09364245255440473
1783337827648727300,1.955727294921875,1.4357256079323588,-0.7960410723417997,-0.07296732879430055
1783337827658700500,1.965700439453125,1.6473742621861398,-0.5903238539636134,-0.24354133759886024
1783337827668673500,1.975673583984375,1.792479629343748,-0.27335867597460745,-0.5073270063251256
1783337827678646500,1.985646484375,1.8993524426102637,-0.12441723778545856,-1.045007649859786
1783337827688619300,1.995619384765625,2.0765712962567804,-0.09649404259324074,-1.6978952197641133
1783337827698591500,2.005591552734375,2.3265433975555,-0.11467968762516975,-2.419811902230978
1783337827708564500,2.015564453125,2.468272274017334,0.02186754841506481,-2.871851613359153
1783337827718537500,2.025537353515625,2.1490976032853126,-0.1680196481466293,-2.7135639624148604
1783337827728510500,2.035510498046875,1.896483609175682,0.27476152850985525,-2.9021605346441266
1783337827738483500,2.0454833984375,1.510488734102249,0.6125058751553296,-2.7368685578957197
1783337827748456400,2.05545654296875,1.172940348420292,0.6485287901729345,-2.351336331897974
1783337827758428700,2.0654287109375,1.1321242077767848,0.34090661006867884,-1.643754756514728
1783337827768401400,2.0754013671875,1.1334968113042414,-0.31749533934295177,-1.1457277857154606
1783337827778374400,2.08537451171875,0.9895392990075051,-1.5306541547745465,-1.2019628831565379
1783337827788347400,2.095347412109375,0.550716504587978,-3.522061780747771,-1.0743562016800046
1783337827798320600,2.105320556640625,-0.2638323574122041,-2.534589789533615,-0.39081659614145753
1783337827808293600,2.115293701171875,-0.9474563532985746,-0.9538736729949712,1.0495984847813844
1783337827818265300,2.125265380859375,-1.6350667154073715,1.9163468320310115,2.3142568935647607
1783337827828238600,2.135238525390625,-2.0329484276294707,2.149596200457215,1.424516085523367
1783337827838211600,2.145211669921875,-2.1166893716335293,1.0222679947853088,0.6444342143356799
1783337827848184600,2.1551845703125,-1.7093197000980376,-0.05975041208565235,0.524819992917776
1783337827858157300,2.1651572265625,-1.3488345293343067,-0.9951204601407051,0.8495832774370908
1783337827868129500,2.175129638671875,-0.9703823247253894,-1.8831810600101946,1.2193082779720426
1783337827878102500,2.1851025390625,-0.7529565483748912,-2.711656667488813,1.4707447527348994
1783337827888075500,2.195075439453125,-0.39263741836044935,-3.34563436973989,1.5073684101246296
1783337827898048500,2.205048583984375,-0.38201073734071106,-3.195802704712748,1.263327160179615
1783337827908021500,2.215021484375,-0.5575929662287235,-3.216068663150072,1.441891875477135
1783337827917994500,2.224994384765625,-1.9379577753365038,-2.2044605940669775,1.6538494495496152
1783337827927966500,2.234966552734375,-2.52495686879158,-0.8009645002186297,1.2455438123382627
1783337827937939500,2.244939453125,-2.5057950722038744,1.4032681303113699,1.2076102413937448
1783337827947912400,2.254912353515625,-2.0850340041756628,5.519844202449917,1.51607237945348
1783337827957885400,2.264885498046875,-1.7895722174644468,8.796055491873622,0.8679837342634796
1783337827967858400,2.2748583984375,-1.4320803832978009,8.826273520004749,-0.20311478079482911
1783337827977831400,2.28483154296875,-1.3893354665488005,5.4467415568381545,-0.848196353123337
1783337827987804400,2.294804443359375,-1.6420008985847234,1.5357675522655247,-0.09144275055304169
1783337827997776400,2.3047763671875,-1.5661533381789923,-0.7442161925584078,0.9586104922585189
1783337828007749600,2.31474951171875,-1.1983254034370183,-1.5766665488868952,1.4415939154438673
1783337828017722400,2.324722412109375,-0.9695715928643941,-1.5391554411381483,1.5100231624171137
1783337828027695400,2.3346953125,-0.9108715666145085,-0.9766682731270789,1.426708919392526
1783337828037668400,2.34466845703125,-0.9505131835859268,-0.41707215038239953,1.5119323570393024
1783337828047641600,2.3546416015625,-0.9611030397266149,-0.1979407391577959,1.7693426455147563
1783337828057613300,2.36461328125,-0.9211147282093762,0.005245499438047409,1.7074881007567047
1783337828067586300,2.37458642578125,-0.9860708922445773,0.10236264236569403,1.3397585118226707
1783337828077559600,2.3845595703125,-1.1042939515650272,0.2333154193997383,0.7073159101843833
1783337828087532500,2.394532470703125,-1.156740178117156,0.37049452360272406,0.16916874511651694
1783337828097505500,2.404505615234375,-0.7955886523991823,0.3215332165569067,-0.0017145488329231738
1783337828107478300,2.414478271484375,-0.10970423730015753,0.08997662352323532,-0.23965339024960994
1783337828117450500,2.424450439453125,0.4351028240483254,-0.12099778473079204,-0.7533627910882235
1783337828127423500,2.434423583984375,0.7906354139059781,-0.34029520017206666,-1.2462103134229778
1783337828137396500,2.444396484375,0.9639924044925718,-0.6735106712162494,-1.6256787093371152
1783337828147369500,2.454369384765625,0.9938158072829246,-1.0449649797618388,-1.9276884563870726
1783337828157342500,2.464342529296875,0.9232687644381076,-1.293739834100008,-1.983950587965548
1783337828167315500,2.4743154296875,0.6670072806715965,-1.3581857105255126,-1.809193448257446
1783337828177287700,2.48428759765625,0.2691770063757896,-1.2620657619416713,-1.6113431638620792
1783337828187260400,2.494260498046875,-0.08765957875251769,-1.1639742210239172,-1.5322452233582735
1783337828197233400,2.5042333984375,-0.343875396746397,-1.087334048935771,-1.5680992115497587
1783337828207206400,2.514206298828125,-0.5142254606019705,-0.9613654900550842,-1.5767045428097246
1783337828217179600,2.5241796875,-0.5716337665408849,-0.7812579292297362,-1.5665003980509935
1783337828227152600,2.534152587890625,-0.5275748445838689,-0.6212246036618948,-1.51099989849478
1783337828237124400,2.544124267578125,-0.40334867239110167,-0.563908725246787,-1.4350298807531594
1783337828247097600,2.55409765625,-0.2853660707630217,-0.509029134067893,-1.3137921497866512
1783337828257070600,2.564070556640625,-0.16553835272490977,-0.4850689972877502,-1.2083714350245893
1783337828267043600,2.574043701171875,-0.015002338820695876,-0.4507838658481836,-1.0721435671318322
1783337828277016300,2.584016357421875,0.1511509309321642,-0.34591304005384443,-1.000991324935481
1783337828286989600,2.593989501953125,0.3311819193899631,-0.23468086253404616,-1.0172926175255328
1783337828296961500,2.60396142578125,0.508844425150752,-0.10996084240972995,-1.0837728493228553
1783337828306934300,2.613934326171875,0.7638567125737666,-0.004320785808563233,-1.1373975450698286
1783337828316907500,2.623907470703125,1.024616749868542,0.0550555322676897,-1.1444232059229165
1783337828326880500,2.633880615234375,1.3098476499445735,0.060386371901631354,-1.1545169491097331
1783337828336853500,2.643853515625,1.5511961536742747,0.009556932896375655,-1.2019831952922047
1783337828346826500,2.653826416015625,1.6942456112153828,-0.06475508850514888,-1.2534791353821755
1783337828356798500,2.663798583984375,1.773456364443898,-0.11924538810551166,-1.272946929179132
1783337828366771500,2.673771484375,1.7869810319274664,-0.19627660533785818,-1.2693803227387368
1783337828376744400,2.683744384765625,1.7482075030274689,-0.24717151079475877,-1.2241104175567625
1783337828386717400,2.693717529296875,1.6696639815360306,-0.3090262016832828,-1.2059864395841955
1783337828396690400,2.7036904296875,1.5863915318265556,-0.3707055360049009,-1.2075741471670567
1783337828406663400,2.713663330078125,1.5416455043882131,-0.4596545700460672,-1.2669447661548852
1783337828416636400,2.723636474609375,1.496493818758428,-0.5422884295910596,-1.374405754572898
1783337828426608600,2.733608642578125,1.465308260769397,-0.5575555568277836,-1.51481843386963
1783337828436581400,2.743581298828125,1.4671619258120656,-0.4298001145303249,-1.649222958792746
1783337828446554400,2.753554443359375,1.5005743660703301,-0.1753711799532175,-1.8234858852431177
1783337828456527400,2.76352734375,1.5506167463511227,0.21564415363073347,-2.0063614494770765
1783337828466500600,2.77350048828125,1.5483751049041747,0.6633271308541298,-2.2906959852352737
1783337828476473600,2.7834736328125,1.471972833225131,1.0894576169610022,-2.5687761367738244
1783337828486445300,2.7934453125,1.2415379376977682,1.5232517695635557,-2.7679788586914538
1783337828496418600,2.80341845703125,1.0789829846978187,1.8776333627551793,-2.9701643958121537
1783337828506391600,2.8133916015625,1.0909662679582834,2.191055753570795,-3.1305978266134855
1783337828516364500,2.823364501953125,1.2363362774014472,2.4036948801666496,-3.366237012785673
1783337828526337300,2.833337158203125,1.4202984678283332,2.4747107826322314,-3.5314176381140947
1783337828536310500,2.843310546875,1.6060057483568786,2.448221419635415,-3.605078794391453
1783337828546282500,2.853282470703125,1.7165305082596838,2.353141335493326,-3.7123154725342986
1783337828556255500,2.86325537109375,1.767704230657965,2.2790467562347647,-3.94268753195852
1783337828566228500,2.873228515625,1.811626374492794,2.222296110486984,-4.163230271285772
1783337828576201500,2.883201416015625,1.8802172417685388,1.999002903407812,-4.347551065891981
1783337828586174500,2.893174560546875,1.9441329568400978,1.4529770408540963,-4.429702402617037
1783337828596147500,2.9031474609375,2.023601484221965,0.7257593293696641,-4.306086836603284
1783337828606119400,2.913119384765625,2.1004114599190653,0.12842705794870854,-4.076498913294077
1783337828616092400,2.923092529296875,2.102636734753102,-0.2566197226196527,-3.803075939911604
1783337828626065400,2.9330654296875,2.092840147881955,-0.33641046769320965,-3.291390738376975
1783337828636038700,2.94303857421875,2.1479962179146708,-0.2758925783663988,-2.635520353269577
1783337828646011600,2.95301171875,2.094658741611242,0.10349135413467883,-1.9273583476498721
1783337828655984400,2.962984375,2.1365724682331084,1.126526826161146,-0.7168431785948575
1783337828665957400,2.972957275390625,1.9350638074606656,2.2043939585715533,0.6363382939025759
1783337828675929300,2.982929443359375,1.1210106200229375,3.02140300014019,1.9442083601638673
1783337828685902300,2.99290234375,0.09744798231720923,3.70664327211678,3.0882343103975054
1783337828695875300,3.002875244140625,-0.8747048592120409,4.413005242577195,3.977369261500239
1783337828705848600,3.0128486328125,-1.856816784697771,4.607493795454502,4.402780493421853
1783337828715821300,3.0228212890625,-2.6186463753581046,4.2669501734793185,4.766816926926374
1783337828725794300,3.032794189453125,-3.401682420176267,3.71732950130403,5.2419671722680325
1783337828735766500,3.0427666015625,-3.9044671068966386,2.7951006743729114,5.294512767541408
1783337828745739500,3.052739501953125,-4.367969584542513,1.698464544084668,4.832554888989031
1783337828755712300,3.062712158203125,-4.7559249460339545,0.41851650397181506,3.7712139439657326
1783337828765685200,3.072685302734375,-4.187839811885357,-0.7229507016897201,2.7217861395761367
1783337828775658500,3.082658447265625,-3.1085178044915196,-1.5105623838603495,1.721760371737182
1783337828785631500,3.092631591796875,-1.7984055122613907,-1.8824165053784847,0.49299540637284517
1783337828795604200,3.102604248046875,0.491838856748864,-1.8394938939750194,-1.2007213586628436
1783337828805576400,3.112576416015625,1.354152509486675,-1.4100719651073217,-2.4434296553142367
1783337828815549400,3.122549560546875,1.110769211993739,-0.9768149881213903,-2.6648703663945197
1783337828825522400,3.1325224609375,-0.4422165285110473,-0.7314952426731586,-1.9244816231697797
1783337828835495200,3.1424951171875,-2.1928220325909553,-0.7786036153286695,-1.6393237883299587
1783337828845468200,3.15246826171875,-3.2957775751590725,-0.9012468291789293,-1.4424007017821072
1783337828855441400,3.16244140625,-3.654883274263143,-0.917105492568016,-1.271499652980268
1783337828865413400,3.172413330078125,-3.6050948687434192,-0.7636287490367889,-1.0488049963161348
1783337828875386000,3.18238623046875,-3.4347242735564705,-0.5498451285809278,-0.767716602872312
1783337828885359400,3.192359375,-3.3769162277102467,-0.5097849208712577,-0.39213177039325237
1783337828895332400,3.202332275390625,-3.611190263009071,-0.49649640023112296,-0.008830956709384918
1783337828905305300,3.212305419921875,-3.824699742698669,-0.5440443333476781,0.1270639529019594
1783337828915278300,3.2222783203125,-3.830197755593061,-0.710414460721612,0.3289604439482093
1783337828925251300,3.232251220703125,-3.7858079942464826,-0.925673414427042,0.8728913800492882
1783337828935223300,3.242223388671875,-3.6173575534671545,-1.149097554409504,1.6232763243705033
1783337828945196300,3.2521962890625,-3.1910861975848674,-1.369535372057557,2.1897116454854606
1783337828955169500,3.26216943359375,-2.887445780593157,-1.4912521187126635,2.508112116974592
1783337828965142300,3.272142333984375,-2.6237714632868765,-1.6933727739036082,2.9804055115804076
1783337828975115300,3.282115234375,-2.4068520290233195,-1.9233686934918164,3.340186625728011
1783337828985088300,3.292088134765625,-2.158387848069519,-2.08559923684299,3.621585692556202
1783337828995060500,3.302060546875,-1.7298044158525765,-2.159273544862866,3.892694251516461
1783337829005033200,3.312033203125,-1.0677321073651314,-2.3156202908724546,3.9231007879570123
1783337829015006200,3.322006103515625,-0.3425393258370459,-2.373285713377595,3.7504479270517823
1783337829024979500,3.3319794921875,0.3778289581440389,-2.150435573890805,3.8859284106433387
1783337829034952400,3.341952392578125,1.0546890859186648,-1.7197972549706697,4.079937655571102
1783337829044925400,3.351925537109375,1.812199205944687,-1.3460200564354656,3.839122235804796
1783337829054898200,3.361898193359375,2.426273061069101,-0.8426204526871443,3.816042973512411
1783337829064870400,3.371870361328125,2.424336101657152,-0.42741468069851396,3.671538056465983
1783337829074843400,3.381843505859375,1.9092996899984775,-0.16230711571872233,3.0343530826061964
1783337829084816400,3.39181640625,1.139445928966999,-0.08053484143912791,1.9625895277678966
1783337829094789400,3.401789306640625,0.621271803804487,0.02782441099286079,0.8090228651203215
1783337829104762400,3.411762451171875,0.46991950508132574,0.2791039416283369,-0.2618750127993524
1783337829114735400,3.4217353515625,0.7963524763785302,0.5598170720189809,-1.5023269088260829
1783337829124708400,3.431708251953125,1.504708981657028,0.829092278072238,-2.761631535491347
1783337829134680300,3.441680419921875,2.3503297852039338,1.1223831504851578,-3.7583074083805084
1783337829144653300,3.4516533203125,3.0509751315832134,1.4376795184791087,-4.2208235053375365
1783337829154626300,3.461626220703125,3.5395489221215244,1.8344284272789955,-4.032378908799588
1783337829164599300,3.471599365234375,3.4625708963811395,2.1618138769954443,-3.665886022053659
1783337829174572300,3.481572265625,2.4842577786564823,2.006781720715761,-3.461962116833031
1783337829184545300,3.491545166015625,1.3836825553536414,1.506730842873454,-2.7777944425240157
1783337829194517200,3.501517333984375,0.8558043439090252,0.9057336192041635,-1.8767185859978197
1783337829204490500,3.511490478515625,0.8122608971934765,0.4639432071506977,-1.819915917801857
1783337829214463200,3.521463134765625,0.8843114764690398,0.37012159863710403,-2.2036960394352674
1783337829224436200,3.531436279296875,0.9045382719397544,0.6167535957276821,-2.1762571206286547
1783337829234409200,3.5414091796875,0.6418681632399559,0.9585434183716773,-1.8805284996747968
1783337829244382500,3.551382568359375,-0.11907872630171477,1.5028338354349136,-1.3633181049779057
1783337829254355500,3.56135546875,-1.0644785854618997,2.2280320237904787,-0.6766086372315884
1783337829264327200,3.5713271484375,-1.8161363992631434,2.7732325414359567,-0.31090047112256286
1783337829274300400,3.581300537109375,-2.173541139668226,2.9152649308890104,-0.1796533873170614
1783337829284273400,3.5912734375,-2.1159715787529945,2.892444027271867,-0.13796514001414178
1783337829294246400,3.601246337890625,-2.113818200111389,2.492330610474944,0.11902137009128927
1783337829304219100,3.61121923828125,-2.268732721360773,1.6294342624783515,0.6096138069756328
1783337829314192400,3.6211923828125,-2.335606847846508,0.6881804170817136,1.2858170782767235
1783337829324164400,3.631164306640625,-2.1721113991260528,-0.08694178587198256,2.0774151997350154
1783337829334137300,3.641137451171875,-1.6241408322453499,-0.42464463146328923,2.969046497698128
1783337829344110300,3.6511103515625,-0.8357564852017909,-0.5541419489920139,3.5672947149202225
1783337829354083300,3.661083251953125,0.2585784372056834,-0.8287216911941766,3.612780747070908
1783337829364056300,3.671056396484375,1.2947463807940482,-1.212915654325485,3.397227778854966
1783337829374029300,3.681029296875,1.7332324906051157,-1.6621353395968674,3.006042933923006
1783337829384002600,3.69100244140625,1.650019369867444,-1.9787533115833997,2.6022078662544486
1783337829393974300,3.700974365234375,1.1103484292984007,-2.0106869114607573,2.495342067250609
1783337829403947300,3.710947265625,0.3217424753934145,-1.8881085795402526,2.305852637834847
1783337829413920500,3.72092041015625,-0.3330991511881351,-1.6380910316646098,1.8525031592823564
1783337829423893500,3.7308935546875,-1.1371160247147083,-1.1392810937941074,1.1949027355119586
1783337829433866200,3.7408662109375,-2.0910978342592714,-0.5208212786704302,0.6495370904326438
1783337829443839200,3.750839111328125,-2.9704110640496015,-0.15232932706177232,0.5712430136576294
1783337829453812500,3.7608125,-3.5638702934294937,-0.04464928906559944,0.5987672726601362
1783337829463784400,3.770784423828125,-3.8927322454392908,-0.007048749467730522,0.39318420205563304
1783337829473757200,3.780757080078125,-4.068612543958425,-0.14057400733828543,0.36342969978302714
1783337829483730400,3.79073046875,-4.060052805405855,-0.22426409793794153,0.48814022142663593
1783337829493703400,3.800703369140625,-3.787788354408741,-0.24985738887786862,0.5889191017322242
1783337829503676400,3.810676513671875,-3.374555928319692,-0.36536475949883457,0.47204190406277774
1783337829513649400,3.8206494140625,-2.9826433536350727,-0.5019914905160665,0.2708606486137956
1783337829523622400,3.830622314453125,-2.61057938875854,-0.5118664033204317,0.09622720835059881
1783337829533594400,3.840594482421875,-2.122111981204152,-0.47413083916604515,-0.10791874212287365
1783337829543567400,3.8505673828125,-1.3802099108070134,-0.3661404200464487,-0.31585612076856195
1783337829553540400,3.860540283203125,-0.3767722521653399,-0.20559329973757265,-0.6382023342087865
1783337829563513300,3.870513427734375,0.6515811634808778,-0.22018179706037044,-1.0871586193036287
1783337829573486300,3.880486328125,1.5315128174304962,-0.3659691551327705,-1.6423238469287753
1783337829583459300,3.890459228515625,2.189388112619519,-0.6141992350697517,-2.098389160311222
1783337829593431300,3.900431396484375,2.6330425649791955,-0.8646434839248657,-2.3267338055610653
1783337829603404300,3.910404296875,2.807052101190388,-0.9780652804434299,-2.3353329993411895
1783337829613377300,3.920377197265625,2.583171741873026,-0.963005073955655,-2.2826569095559415
1783337829623350300,3.930350341796875,1.9234727383881807,-0.9545622397810221,-2.1723782333686947
1783337829633323500,3.940323486328125,1.1757767408899962,-0.8260784832090139,-1.8972272671498358
1783337829643296300,3.950296142578125,0.5751140098720788,-0.6697691466003656,-1.551360550455749
1783337829653269000,3.96026904296875,0.08184519338533282,-0.5992407353907824,-1.2231812469478696
1783337829663241000,3.970240966796875,-0.29816534658148885,-0.5546645115613937,-0.926602585035935
1783337829673214000,3.9802138671875,-0.5604483556598424,-0.553059998974204,-0.5609601776394992
1783337829683187000,3.99018701171875,-0.7542915233056992,-0.5356307252675294,-0.1648938442762941
1783337829693160000,4.000159912109375,-0.9525145134709775,-0.5490899262994527,0.11134798591919243
1783337829703133000,4.0101328125,-1.0412052619021386,-0.5038438403844833,0.17843794711269437
1783337829713106000,4.02010595703125,-1.0132711799897254,-0.41058804906010626,0.1304257574852556
1783337829723079000,4.030078857421875,-0.9404290850102901,-0.2634054372370243,0.0756100253228098
1783337829733051100,4.040051025390625,-0.747362089368701,-0.10546002385914326,0.030829511092975735
1783337829743023900,4.05002392578125,-0.41344577657878395,-0.025619594424962994,-0.15620098086334763
1783337829752996900,4.059996826171875,-0.015810878724604845,-0.007197218027710914,-0.3893579217657447
1783337829762969900,4.069969970703125,0.3667541680306196,-0.02131634427309036,-0.5436677551202476
1783337829772943000,4.079943115234375,0.7528108562938869,-0.05416004473268986,-0.6925066827829927
1783337829782916000,4.089916015625,1.0712778171479702,-0.1272521689504385,-0.8042283973854034
1783337829792887800,4.0998876953125,1.348796535411477,-0.17157354123592375,-0.9204257960971445
1783337829802861000,4.109861083984375,1.5520299741499124,-0.16823182959258556,-0.9590692688766866
1783337829812834000,4.119833984375,1.701871722179651,-0.1772007334679365,-1.006130002998188
1783337829822807000,4.12980712890625,1.7984873453259467,-0.15187632259726525,-1.0705795326855032
1783337829832779800,4.13977978515625,1.9174743747562168,-0.04889525607228279,-1.1823393873412162
1783337829842753000,4.1497529296875,1.9926959122180938,0.1490636032640934,-1.4510647774919867
1783337829852726000,4.15972607421875,1.9918027627706527,0.4556108476132154,-1.9039017764776944
1783337829862698000,4.169697998046875,1.9904088241942226,0.6829127058118581,-2.4055885849587617
1783337829872671000,4.1796708984375,1.9850740390375254,0.8374182078689336,-2.8533839365154505
1783337829882644000,4.18964404296875,1.959776223912835,0.9967565369099378,-3.2415345283180472
1783337829892617000,4.199616943359375,1.9218162033528088,1.1940396889418363,-3.6028786539986726
1783337829902590000,4.20958984375,1.865902154559642,1.3555734822005032,-3.8742981786042447
1783337829912563200,4.219563232421875,1.801284282568097,1.4510989720225334,-4.017783981736004
1783337829922536000,4.229535888671875,1.7321220451451838,1.4329203412532805,-4.048670702908933
1783337829932508000,4.2395078125,1.6404209359169006,1.4102870691627263,-3.922095702567696
1783337829942481200,4.249481201171875,1.5689125737592577,1.3892851976662874,-3.6070717217743393
1783337829952454100,4.2594541015625,1.590838866624236,1.4493401456564663,-3.29792803119123
1783337829962427000,4.269427001953125,1.5851035378426312,1.674974947425723,-3.121412065117061
1783337829972399900,4.27939990234375,1.538001594927907,1.8786030845701693,-3.116291068841517
1783337829982373000,4.289373046875,1.4877631075531244,1.9936182877600193,-3.189748811501264
1783337829992346000,4.29934619140625,1.4367460370212792,1.9939251617521045,-3.247704741385579
1783337830002317800,4.30931787109375,1.3383185421474277,1.8617191697865723,-3.1945626415237784
1783337830012291000,4.319291015625,1.2992865084417164,1.6524743618041275,-2.9694989176407454
1783337830022264000,4.32926416015625,1.3574164797186852,1.3920698599487542,-2.5810239161893724
1783337830032237000,4.339237060546875,1.4038748640328644,1.0643407113611698,-2.0591703718617556
1783337830042209800,4.349209716796875,1.417427004045248,0.7376198630332946,-1.41120330722481
1783337830052183000,4.35918310546875,1.3845271894842386,0.4450982214272022,-0.7485163009051233
1783337830062155000,4.369155029296875,1.223100948253274,0.12710486943423746,0.008326222057640551
1783337830072128000,4.3791279296875,1.0751349309675395,-0.017578326788544655,0.8439076429534703
1783337830082101000,4.38910107421875,0.8387813129156827,0.13030921843349932,1.6202761196412145
1783337830092074000,4.399073974609375,0.8883283108949661,0.4820493572056293,2.2949024970144034
1783337830102047000,4.409046875,1.265886197012663,0.951276057717204,2.7277549848526714
1783337830112020000,4.41902001953125,1.2754168264240027,1.3646949462890625,3.1490520594537257
1783337830121993000,4.428992919921875,0.9343711001455783,1.749438944518566,3.556270339819789
1783337830131965000,4.43896484375,0.2767512044897303,1.8724924927353859,3.8818969631701705
1783337830141938000,4.44893798828125,-0.4081587760865688,1.7408517334371805,4.043191979236901
1783337830151911000,4.458910888671875,-1.0557692823708056,1.4747750311642884,4.004561219808459
1783337830161884200,4.46888427734375,-1.7288649430453775,1.0652531500309705,3.806854289406538
1783337830171857000,4.47885693359375,-2.501323479747772,0.7073240934908389,3.438082644073665
1783337830181830000,4.488829833984375,-3.2538638485372067,0.5604553699225187,3.078587068869173
1783337830191803000,4.498802978515625,-3.507382682532072,0.5471399612754583,2.6507173378795383
1783337830201775000,4.508775146484375,-3.0935201418459415,0.23239245933592317,1.8112442433074116
1783337830211747800,4.518747802734375,-2.626467278242111,0.09754209034144878,0.8665307589761913
1783337830221720800,4.528720947265625,-1.5985855352282523,-0.03880290112495422,-0.6155233232803642
1783337830231694000,4.538694091796875,-0.21300452584214508,0.026341478958725927,-2.105148425313085
1783337830241667000,4.5486669921875,0.4382779469531029,0.05499708007872104,-3.1299896315872666
1783337830251640000,4.55864013671875,0.03401325569562614,0.23656419206261634,-2.9995068101525306
1783337830261612800,4.56861279296875,-0.7891115653395653,0.3024444852054119,-2.190466263245046
1783337830271585000,4.5785849609375,-1.3673171114861964,0.13521744874119757,-1.491359378479421
1783337830281558000,4.58855810546875,-1.6037597229957579,0.17576573222875594,-0.7622980849549174
1783337830291531000,4.598531005859375,-1.740673454260826,0.3165145116120577,-0.22535160091370343
1783337830301504000,4.60850390625,-2.123415026626736,0.41850598257780075,0.35254064150005576
1783337830311477000,4.61847705078125,-2.4969009871304033,0.3605366086900234,0.7792842910692095
1783337830321450000,4.628449951171875,-2.65187059956789,0.08344225331842899,1.1387997400179504
1783337830331423000,4.638423095703125,-2.654627204799652,-0.24671383015513418,1.5927800638198852
1783337830341395000,4.64839501953125,-2.7016309480369087,-0.7539256856679916,2.1575416065037247
1783337830351368000,4.658367919921875,-2.8592753326416016,-1.3640139782875775,2.539180916716158
1783337830361341000,4.6683408203125,-2.689128024816513,-1.8951590825736522,2.8727760347276923
1783337830371314200,4.678314208984375,-2.4474283695615826,-2.2432482976227996,3.4494024949893354
1783337830381287000,4.688286865234375,-2.2858546826839445,-2.5694921760886906,3.8759994295641778
1783337830391260000,4.698260009765625,-2.2241431996583936,-2.959159602195024,4.0016777733266355
1783337830401232100,4.708232177734375,-2.0035484378829596,-3.209542476251721,4.157280715231598
1783337830411205000,4.718205078125,-1.5807181623652578,-3.2218139288038015,4.402803582036495
1783337830421177900,4.728177734375,-1.134089370369911,-3.2789982897937295,4.359608583432435
1783337830431150800,4.73815087890625,-0.44582185952663417,-3.3907308180510998,3.9539831252157684
1783337830441123800,4.748123779296875,0.28822423667311664,-3.114356593647599,3.526491872149706
1783337830451097000,4.75809716796875,0.9356396587766707,-2.4700036278545854,3.192280083544552
1783337830461070000,4.768070068359375,1.5827463071919976,-1.7722879051864147,2.681002293767035
1783337830471041800,4.778041748046875,2.456322308504581,-1.0969745684623717,1.9209034724220633
1783337830481015000,4.78801513671875,3.3809400763988493,-0.2163449953764677,1.1839409042537212
1783337830490988000,4.797988037109375,3.8719770421802995,0.6722340754091739,0.38690789826512334
1783337830500961000,4.8079609375,3.5725428447067737,1.2888760274559259,-0.6572010491892695
1783337830510933800,4.817933837890625,2.5621780536830423,1.5149427909016608,-1.7099094826847314
1783337830520907000,4.827906982421875,1.5658055476546286,1.526086116206646,-2.5992493087098003
1783337830530880000,4.8378798828125,1.0670013819377868,1.5229384658306837,-3.1730624651163812
1783337830540852000,4.84785205078125,1.2551543751180172,1.4890285974442958,-3.6853365724548697
1783337830550825000,4.857824951171875,1.9359774151742457,1.3917840287446974,-4.151442218336463
1783337830560798000,4.8677978515625,2.6846774751484395,1.188965454417467,-4.380980749545992
1783337830570771000,4.87777099609375,3.0376293277978896,1.0306009388446806,-4.182600742188096
1783337830580744000,4.887743896484375,2.6346774727046487,1.0048761304795741,-3.5528088011890646
1783337830590717200,4.89771728515625,1.8947335506379603,0.9068471334040165,-2.8190672408938404
1783337830600690000,4.90768994140625,1.087711138619855,0.5122551103770733,-2.0899945491924883
1783337830610662000,4.917661865234375,0.4274457334239036,0.08007306914627552,-1.5497455164745448
1783337830620635100,4.92763525390625,0.11348492488265037,-0.10295417851805687,-1.496671221151948
1783337830630608100,4.937608154296875,0.11731230115108192,0.11622516350150108,-1.3196478900775312
1783337830640580900,4.947580810546875,0.29632571006417274,0.4127367515265941,-1.2103282681807874
1783337830650554600,4.9575546875,0.5441150239637121,0.7079922020107507,-1.1925365909025072
1783337830660527600,4.967527587890625,0.5428933732142671,1.1747025357872247,-0.9886495105609298
1783337830670500900,4.9775009765625,0.15713000534176824,1.8630624010890722,-0.5473822455987334
1783337830680472600,4.98747265625,-0.4288157796680927,2.6916502367705104,-0.11764496717154979
1783337830690445600,4.997445556640625,-0.7836521308898925,3.392328900897503,-0.021245763254910704
1783337830700418800,5.007418701171875,-0.7189642624020576,3.770526838484406,-0.1357150229997933
1783337830710391600,5.0173916015625,-0.687778850543499,3.559994328778982,-0.044489276198297734
1783337830720364500,5.027364501953125,-0.8446049045026301,2.801252182739973,0.14217062887996434
1783337830730337500,5.037337646484375,-1.0536217489480972,1.9236761520057915,0.7238567106187344
1783337830740309800,5.047309814453125,-1.3306079677700995,0.9922966348916291,1.6558898693360387
1783337830750282500,5.057282470703125,-1.4872925674319266,0.09149170426130294,2.8424396409139034
1783337830760255500,5.06725537109375,-1.423486157953739,-0.5754769979655743,4.016000313189625
1783337830770228700,5.077228759765625,-1.1613199071228504,-1.1160334891974926,4.677344453532993
1783337830780201700,5.08720166015625,-0.8738128788083791,-1.6277327192574738,4.9394344242572785
1783337830790174700,5.0971748046875,-0.49077977614998813,-2.1580571548104284,4.889155020350217
1783337830800147500,5.1071474609375,-0.02849657463338226,-2.4965689786970615,4.668763672192394
1783337830810119700,5.11711962890625,0.23125560079310087,-2.6267875962376595,4.38791113333106
1783337830820092700,5.1270927734375,0.25386490748617796,-2.531787007072568,3.9975346821725366
1783337830830065700,5.137065673828125,-0.19956216634716836,-2.058319600251317,3.576217733827233
1783337830840038700,5.14703857421875,-1.1483715782225132,-1.328829852181673,3.023040245953202
1783337830850011600,5.15701171875,-2.217593047362566,-0.522509377887845,2.2743407705008982
1783337830859984600,5.166984619140625,-2.967875408092141,0.05211188003122806,1.468390006302297
1783337830869957600,5.17695751953125,-3.421610524961352,0.3895639657318592,0.5973172199822961
1783337830879929600,5.1869296875,-3.6656156806796787,0.4699959313184023,0.01485796191394329
1783337830889902600,5.196902587890625,-3.7951667742222543,0.223407188847661,-0.1026850061878562
1783337830899875600,5.20687548828125,-4.0278824741631745,-0.1612935547620058,0.05993029869720339
1783337830909848600,5.2168486328125,-4.017457526260614,-0.42859716848134993,0.2666740836441517
1783337830919821800,5.22682177734375,-3.7096857085525987,-0.45290041961073874,0.5146465355582535
1783337830929794600,5.236794677734375,-3.153862674605846,-0.40187750385999677,0.5494229576461017
1783337830939767600,5.246767578125,-2.470111179882288,-0.5246931516677141,0.19699980504587292
1783337830949739800,5.25673974609375,-1.886867639568448,-0.6297860957801341,-0.16170958821699022
1783337830959712800,5.266712646484375,-1.337888187906146,-0.613316607016325,-0.3505541438579559
1783337830969685500,5.276685546875,-0.5984755962371826,-0.39122868407368655,-0.5366717587530613
1783337830979658500,5.286658447265625,0.416802685791254,-0.09946166022717952,-0.7358756497144698
1783337830989631700,5.2966318359375,1.3870790659241377,0.043840895292162896,-0.9611464404769241
1783337830999604700,5.306604736328125,2.2923691791445013,-0.02652618787586689,-1.5222611510910093
1783337831009577700,5.31657763671875,2.789183559283614,-0.2685638429135084,-2.1229757584266364
1783337831019549700,5.3265498046875,2.82296658641994,-0.4972960261762142,-2.172173504576832
1783337831029522700,5.336522705078125,2.5554455305576322,-0.6965881799429655,-1.9453385332375763
1783337831039495700,5.34649560546875,2.025346135932207,-0.8548094876527785,-1.7604281021751462
1783337831049468700,5.35646875,1.3246288933604955,-0.8113912016868591,-1.588752854130417
1783337831059441700,5.366441650390625,0.5460697016954422,-0.6010609365552664,-1.3175946108095347
1783337831069414700,5.37641455078125,-0.11870412083566188,-0.4921726918131113,-0.9564001227326691
1783337831079387600,5.3863876953125,-0.5326613540679216,-0.4327823452115059,-0.795038909561932
1783337831089359600,5.396359619140625,-0.8382536357797682,-0.3651952481508255,-0.7189658698372542
1783337831099332600,5.40633251953125,-1.143268263734132,-0.36152678877115246,-0.7525136269129812
1783337831109305600,5.4163056640625,-1.361228731483221,-0.4445382494568825,-0.6830502145864069
1783337831119278600,5.426278564453125,-1.4068477423638104,-0.3939771059989929,-0.4885759824953973
1783337831129251800,5.436251953125,-1.3247387834757565,-0.2289151386141777,-0.2839803154930472
1783337831139224600,5.446224609375,-0.9792489372700452,-0.1604658717662096,-0.25987653245851394
1783337831149196500,5.456196533203125,-0.4623784420520067,-0.23729659799039363,-0.3774982648849487
1783337831159169800,5.466169677734375,0.03967077000066638,-0.2762666723757982,-0.4252816141925752
1783337831169142800,5.476142822265625,0.5181704719007015,-0.18986030855476854,-0.47868031916394826
1783337831179115500,5.486115478515625,0.9676666360259055,-0.14531038821041584,-0.5609266406960786
1783337831189088500,5.496088623046875,1.428471545150876,-0.21229425868093965,-0.7048159100621938
1783337831199061800,5.506061767578125,1.865423869523406,-0.3657990592628717,-0.7623478423807769
1783337831209034800,5.51603466796875,2.230384724396467,-0.4446037159085274,-0.8158160323917866
1783337831219006500,5.52600634765625,2.4859382790893316,-0.4508499168217182,-0.8745608476314694
1783337831228979700,5.535979736328125,2.595544316712022,-0.2856049940854311,-0.9926550198752433
1783337831238952700,5.54595263671875,2.5751333968460557,-0.041596915757656096,-1.2642838763825595
1783337831248925700,5.55592578125,2.4551971038669347,0.28484102397561073,-1.646876687927544
1783337831258898700,5.565898681640625,2.316344805754721,0.6634387745350598,-2.0508067404031753
1783337831268871400,5.575871337890625,2.220580538740754,1.121504614084959,-2.37718359759897
1783337831278844700,5.5858447265625,2.0673378962263462,1.478546950918436,-2.705347630472481
1783337831288816600,5.595816650390625,1.8714725020378826,1.576157430320978,-3.0593565909594296
1783337831298789600,5.60578955078125,1.7265747862815857,1.3493231896340847,-3.282688961005211
1783337831308762600,5.6157626953125,1.6974340319931507,0.9537684590548277,-3.1952015239492058
1783337831318735600,5.625735595703125,1.6711891452766954,0.7318781045109033,-2.8867037300541996
1783337831328708600,5.63570849609375,1.6833023385271428,0.5768558851033448,-2.4348151178345083
1783337831338681600,5.645681640625,1.645735408937931,0.527828527083993,-1.8992559964984654
1783337831348654800,5.65565478515625,1.3929741153120994,0.5738777460753918,-1.3713054504700004
1783337831358626600,5.66562646484375,1.1980436638861893,0.6762696145355701,-0.8470659608539194
1783337831368599600,5.675599609375,1.1208324139118193,0.8701192849874496,-0.610312895155698
1783337831378572800,5.68557275390625,1.1102198344826697,1.1922492983937263,-0.46133499741367995
1783337831388545800,5.6955458984375,1.2232304198518396,1.6025976934790611,-0.39954138906262815
1783337831398517500,5.705517578125,1.432490425403416,1.923574445196986,-0.42597668378464876
1783337831408490800,5.71549072265625,1.7657998583413659,2.1083096658229827,-0.47382330758683383
1783337831418463700,5.725463623046875,2.108939780420065,2.217359823128581,-0.559430995310843
1783337831428436700,5.735436767578125,2.388762683972716,2.325330368503928,-0.8097741949442774
1783337831438409500,5.745409423828125,2.5343919288739563,2.2509680782198904,-1.1925747309558092
1783337831448382700,5.7553828125,2.581873226495087,1.936478350433707,-1.5335612743929028
1783337831458354700,5.765354736328125,2.491748426672816,1.4718343015372752,-1.6740059562630951
1783337831468327400,5.775327392578125,2.2630584751166403,0.9386433706372975,-1.6826526424467563
1783337831478300700,5.78530078125,2.0098663888581094,0.4065630313277244,-1.55896328054443
1783337831488273700,5.795273681640625,1.7280637096650897,-0.09690613052546977,-1.2924141384541987
1783337831498246700,5.80524658203125,1.3901070354431866,-0.5115513460218906,-0.8420941637907177
1783337831508219600,5.8152197265625,1.1947668341726063,-0.5152987158566713,-0.42679143423363564
1783337831518192600,5.825192626953125,1.0744389845926314,0.06609364363253116,-0.08253989765122532
1783337831528164600,5.83516455078125,1.0990268978822975,0.925607947975397,0.2266651677303016
1783337831538137600,5.8451376953125,1.130055584809184,1.7604034061253069,0.6979577147305012
1783337831548110800,5.85511083984375,0.8490520201046019,2.2530191655308007,1.3646120903111993
1783337831558083600,5.86508349609375,0.3111235027560964,2.515086047640443,2.1615430972300467
1783337831568056600,5.875056640625,-0.29985793931093063,2.6662901700645683,3.1110496610566973
1783337831578029600,5.885029541015625,-1.0134791236519813,2.5473656844764947,3.740822897355258
1783337831588002600,5.89500244140625,-2.028363437926769,2.214630690425634,3.927568581020832
1783337831597974500,5.904974609375,-3.0098797356069085,2.097872442960739,3.8711858918026087
1783337831607947500,5.914947509765625,-3.582484393006563,2.029884363883734,3.9494209318667646
1783337831617920500,5.92492041015625,-3.7372038300752637,1.5622060618579388,3.6799896584689615
1783337831627893800,5.934893798828125,-3.173229053854942,0.7506769130051135,2.6111808617830277
1783337831637866800,5.94486669921875,-1.6137854424476623,0.0447644398778677,0.9219828893460332
1783337831647839500,5.954839599609375,0.3515432279605418,-0.2977443446904421,-0.6088599198684096
1783337831657811700,5.964811767578125,0.9503682952225208,-0.5468699121624231,-1.5905252706304192
1783337831667784700,5.97478466796875,0.29117486663963643,-0.8931862723201512,-2.049878519642353
1783337831677757400,5.98475732421875,-0.536526797324419,-1.2602619273900986,-1.8072651105433701
1783337831687730400,5.99473046875,-0.9692601157624274,-1.3289029174178837,-1.3686127042546867
1783337831697703700,6.00470361328125,-1.5188111567676066,-1.0900509066790343,-0.9891595059096813
1783337831707676700,6.0146767578125,-2.0181307977259157,-0.7918880443155765,-0.6173007082164287
1783337831717649700,6.024649658203125,-2.2797861764252185,-0.627218291118741,-0.4008399775058031
1783337831727621600,6.03462158203125,-2.5535598629415035,-0.4676023141801357,-0.11894698968082666
1783337831737594600,6.0445947265625,-2.824572268050909,-0.6726987703114747,-0.16208938131481407
1783337831747567600,6.054567626953125,-2.7835762407958504,-0.8850824608415365,-0.07200842063426971
1783337831757540600,6.06454052734375,-2.776436013652384,-0.9111445383369922,0.41325054626762864
1783337831767513600,6.074513671875,-2.8846134797766805,-1.1225690284460783,0.8117652956962585
1783337831777486600,6.084486572265625,-2.9369489394307133,-1.370036891838908,1.3124690844893454
1783337831787459600,6.09445947265625,-2.730335648995638,-1.5963403866499661,1.8816908214524388
1783337831797431800,6.104431884765625,-2.429517303687334,-1.8401175788313149,2.504091190895438
1783337831807404500,6.114404541015625,-2.2290824096262454,-2.0278215861350297,2.829187652891874
1783337831817377500,6.12437744140625,-1.960400054899603,-2.3439386228621006,2.888694027088582
1783337831827350500,6.1343505859375,-1.7550760736227033,-2.5972885300308466,3.053410249775648
1783337831837323800,6.14432373046875,-1.6109491961084306,-2.7839509193271397,3.192413062274456
1783337831847296800,6.154296875,-1.3541102777801453,-3.019666385605931,3.07473273152858
1783337831857268500,6.1642685546875,-0.8994462094977498,-3.2197266011357306,2.847724011057615
1783337831867241700,6.17424169921875,-0.32137612629905343,-2.91742824640274,2.862857282781601
1783337831877214700,6.184214599609375,0.20473945938721297,-2.3933780688136816,2.714960385209322
1783337831887187500,6.1941875,0.7835447249926626,-1.910610918727517,2.227536933749914
1783337831897160400,6.204160400390625,1.5301017815887927,-1.4406249242812394,1.523191271547973
1783337831907133700,6.2141337890625,2.17101600510478,-0.7295745037436485,1.0655430728882551
1783337831917106700,6.224106689453125,2.4259669177293777,0.03068330755531788,0.6908139804556965
1783337831927078400,6.234078369140625,2.256360877174139,0.4852700728178024,0.00799947432130575
1783337831937051600,6.2440517578125,1.8092882869340479,0.7020704107463359,-0.911066796925664
1783337831947024600,6.254024658203125,1.4949661707997322,0.9436550613194703,-1.7597493261307477
1783337831956997600,6.26399755859375,1.586062738263607,1.3496949455559253,-2.4160136789917943
1783337831966970600,6.273970703125,2.0926608457922935,1.8589999739557503,-2.9246134817317126
1783337831976943600,6.283943603515625,2.7106583041012287,2.2636241461753843,-3.375759458890557
1783337831986916600,6.29391650390625,3.187565037721395,2.5467507674485446,-3.546790271551907
1783337831996888600,6.303888671875,3.291336377841234,2.526930214691162,-3.3750010417386886
1783337832006861600,6.313861572265625,2.9646798269212242,2.0808774690181018,-3.3336735905721784
1783337832016834600,6.32383447265625,2.292942595118284,1.2529618335098027,-3.365049556566775
1783337832026807600,6.3338076171875,1.344665719217062,0.4363894297927618,-2.7886729794129725
1783337832036780500,6.343780517578125,0.6236533651787788,-0.19050094454586505,-2.045960177154839
1783337832046753500,6.35375341796875,0.3070108432728797,-0.6201181037247181,-1.8664605190947652
1783337832056726800,6.363726806640625,0.14447861356139183,-0.729060709002614,-2.1522408697471023
1783337832066698500,6.373698486328125,0.11997889001183211,-0.45097734259366984,-2.1581892567574976
1783337832076671500,6.38367138671875,-0.006292962664365768,0.04211187954246998,-1.8867118644848464
1783337832086644700,6.393644775390625,-0.42487376404404636,0.8798708636730909,-1.194896305771172
1783337832096617700,6.40361767578125,-1.076515133279562,1.9700193855077026,-0.3838907424010336
1783337832106590500,6.413590576171875,-1.5392062945425509,3.078736998733878,0.18126082251369952
1783337832116563500,6.4235634765625,-1.4882137739300727,4.056497743272781,0.31139936055541034
1783337832126535700,6.43353564453125,-1.2710627228677271,4.516449250438809,0.38147812830135225
1783337832136508700,6.4435087890625,-1.4366729717850684,4.3228292970895765,0.5866336211435497
1783337832146481400,6.4534814453125,-1.7850772441327571,3.4515351231038567,0.951967108721286
1783337832156454700,6.46345458984375,-1.9597627799093722,2.2103841388970613,1.661950484549254
1783337832166427600,6.473427734375,-1.7498282360970974,0.6769277861833572,2.839609093663096
1783337832176400600,6.483400634765625,-0.997968250787258,-0.7116068853765726,4.076314204376936
1783337832186373600,6.49337353515625,0.19903554865717887,-1.7279548424631357,4.851362173050641
1783337832196345600,6.503345703125,1.4624924726963042,-2.5620026971161365,4.678644430215656
1783337832206318600,6.513318603515625,1.6037117922008037,-3.0501755056381223,4.009437301412224
1783337832216291600,6.52329150390625,1.2616010670393705,-3.0070167473912237,3.712766138911247
1783337832226264800,6.533264892578125,1.035654715102911,-2.7117385005533694,3.698013975459337
1783337832236237600,6.543237548828125,0.5841548099398612,-2.385051554495096,3.3054742087870834
1783337832246210600,6.55321044921875,-0.10329495477974414,-2.025006528714299,2.362834608120471
1783337832256182800,6.563182861328125,-1.102294886702299,-1.4530232180833815,1.2789886935614048
1783337832266155500,6.573155517578125,-2.219420262789726,-0.6377092899948358,0.4952215579897165
1783337832276128500,6.58312841796875,-3.1717829466998575,0.02002279733121395,-0.04633220065124333
1783337832286101500,6.5931015625,-3.9313258877277373,0.21474340539872644,-0.5092185922253877
1783337832296074800,6.60307470703125,-4.37284098997116,0.058140054279565805,-0.6796417943824082
1783337832306047700,6.6130478515625,-4.603105205106735,-0.13053484388291836,-0.7302161626480519
1783337832316020500,6.6230205078125,-4.575147523123025,-0.2711258023560047,-0.6530931024137884
1783337832325992700,6.63299267578125,-4.383357707810402,-0.5678349587798118,-0.5507073714334517
1783337832335965700,6.642965576171875,-4.1257565729379655,-0.9196598532259463,-0.5118472602285444
1783337832345938700,6.652938720703125,-3.7555987339437005,-1.016187798088789,-0.5464609660353511
1783337832355911400,6.662911376953125,-3.3165339474618434,-0.9240542887926101,-0.483425467864424
1783337832365884400,6.672884521484375,-2.826464949929714,-0.6758107648521662,-0.51528023035191
1783337832375857700,6.682857666015625,-2.3820132097125053,-0.3921954832792282,-0.8134638432424515
1783337832385829600,6.69282958984375,-1.8567571634650228,-0.14102818084657193,-1.1431335314385593
1783337832395802600,6.702802734375,-1.003716439050436,0.11258534569442272,-1.2766887460559606
1783337832405775600,6.712775634765625,0.14994564679563044,0.26157354563474655,-1.344339263741672
1783337832415748600,6.72274853515625,1.2809154238402842,0.23735738826692104,-1.5281722748309372
1783337832425721600,6.7327216796875,2.239471701693535,0.04379822519421577,-1.7896160566061734
1783337832435694600,6.742694580078125,2.9882798982173204,-0.2675666485697031,-2.014137051914632
1783337832445667600,6.75266748046875,3.4754824004024267,-0.5572784934520721,-2.036554343166947
1783337832455639600,6.7626396484375,3.606307167142629,-0.7902250795394182,-1.9977236772522329
1783337832465612500,6.772612548828125,3.28828458905518,-0.942335210892558,-1.8941440603122115
1783337832475585800,6.782585693359375,2.6773937478810548,-0.823321877977252,-1.6173057255282997
1783337832485558500,6.79255859375,1.9123522094368934,-0.6767050833433866,-1.211787892404571
1783337832495531500,6.802531494140625,1.2269301511526107,-0.6506921056866646,-0.9108771195724606
1783337832505504500,6.81250439453125,0.6453133352577686,-0.6130173318088055,-0.5949658345505595
1783337832515476700,6.822476806640625,0.1353099493302405,-0.5617769739151001,-0.3402751072321087
1783337832525449500,6.832449462890625,-0.33299379111751914,-0.5330868860036134,-0.17017609552815555
1783337832535422500,6.84242236328125,-0.7204986323624849,-0.5270826771527528,-0.12371778427921234
1783337832545395700,6.852395751953125,-0.9573016746822745,-0.5166992303043604,-0.17499145992062984
1783337832555368700,6.86236865234375,-1.0233924687705933,-0.46465398576855654,-0.2523402186695486
1783337832565341700,6.872341796875,-0.95163787676692,-0.3173760968774557,-0.3435622391439974
1783337832575314400,6.882314453125,-0.8028256179153919,-0.16027239502072332,-0.47038076591752465
1783337832585286700,6.89228662109375,-0.5538356595218181,-0.03203121503293514,-0.5541523242555558
1783337832595259600,6.902259765625,-0.2693422799400985,0.07343699213266372,-0.6399415060263127
1783337832605232600,6.912232666015625,0.05206935606375336,0.14153729941248894,-0.7508342224586755
1783337832615205600,6.92220556640625,0.3982816713251173,0.1564654039531946,-0.925548984329775
1783337832625178600,6.9321787109375,0.7182431085206568,0.057387190085649485,-1.1300821074899285
1783337832635151600,6.942151611328125,1.002008904480189,-0.05886310785710811,-1.300274058174342
1783337832645123600,6.95212353515625,1.2506751838773489,-0.16467618293762207,-1.5385130515813827
1783337832655097000,6.96209716796875,1.4872808769941328,-0.23593524650931358,-1.7433138857670127
1783337832665070000,6.972070068359375,1.692253999006748,-0.16161445727944374,-1.9539064550966023
1783337832675043000,6.98204296875,1.8654589408367872,0.026714988446235655,-2.1484432310298085
1783337832685015800,6.992015869140625,1.9756331337362527,0.33036943396329876,-2.364633035844564
1783337832694989000,7.001989013671875,1.9006512502491473,0.7338064422249794,-2.682204947555065
1783337832704962000,7.011962158203125,1.779342207612097,1.226920214280486,-3.1331846282362936
1783337832714934000,7.02193408203125,1.7052490896582602,1.650852898082137,-3.568045533287525
1783337832724907000,7.031906982421875,1.6176555618792772,1.9298142163693903,-3.8898312633007763
1783337832734880000,7.0418798828125,1.536880481943488,2.0840420705288647,-4.2262107513338325
1783337832744853000,7.05185302734375,1.5447522382318972,2.058821120032668,-4.521062297192215
1783337832754826000,7.061825927734375,1.63263057430163,1.9529419939786195,-4.692683184701204
1783337832764799200,7.07179931640625,1.695032377678901,1.8171598970919847,-4.685089368571341
1783337832774771000,7.08177099609375,1.6415508167296646,1.706922575828433,-4.570641736136377
1783337832784744000,7.091743896484375,1.4821202793605626,1.6530998002260922,-4.39575454030782
1783337832794717200,7.10171728515625,1.2883584333226084,1.506033508259058,-4.159640137839317
1783337832804690200,7.111690185546875,1.082519488260895,1.299944533959031,-3.792495801447332
1783337832814663000,7.121662841796875,0.9759367439821361,1.1185066013127565,-3.2815009202644227
1783337832824636000,7.131635986328125,0.9103010732501745,0.9343629168391228,-2.5393726398959755
1783337832834609200,7.141609130859375,0.9228127642989158,0.8366974923789501,-1.6234164634935557
1783337832844581000,7.1515810546875,0.9444599479615687,0.7729413517832756,-0.6280974851060658
1783337832854553900,7.161553955078125,0.8904865118421613,0.6630939066201448,0.4344392455730587
1783337832864527000,7.171527099609375,0.6675019323207437,0.479750432613492,1.6753687690488994
1783337832874500000,7.1815,0.9262633431442081,0.4331804046183824,2.5713717062249777
1783337832884473000,7.19147314453125,1.4088818785399198,0.47421501031816005,3.275981864582002
1783337832894445800,7.20144580078125,1.775058538943529,0.6424211209475994,3.9565836631029843
1783337832904418000,7.21141796875,2.084459419158101,0.9439175116479396,4.238384004208445
1783337832914391000,7.22139111328125,2.1031039138734338,1.4501082074195146,4.320675333926081
1783337832924364000,7.231364013671875,1.5038444737821817,2.0224282026588916,4.5773348040342325
1783337832934337000,7.2413369140625,0.4502396759688854,2.401676526081562,4.70745989807248
1783337832944310000,7.25131005859375,-0.58341129809618,2.2978163386344908,4.250987757454812
1783337832954283000,7.261282958984375,-1.5995137559890746,2.0125737481206656,3.820337455835938
1783337832964255000,7.2712548828125,-2.3350047903001308,1.6918337277680635,3.5085526030942797
1783337832974228000,7.28122802734375,-2.540460727393627,1.3480126915574073,3.0940181544959544
1783337832984201000,7.291200927734375,-2.877605939102173,0.7750310175389051,2.339272530747205
1783337832994174000,7.301174072265625,-3.25969503890872,0.4130348576903343,1.5159845550395548
1783337833004147000,7.31114697265625,-3.1417747619271275,0.10988777717351912,0.36554362319707867
1783337833014120200,7.3211201171875,-2.0097183586895464,-0.28055530948042867,-1.3188196225598454
1783337833024093000,7.331093017578125,-0.44379356856942176,-0.5396662643939256,-3.2190760282725095
1783337833034065000,7.34106494140625,0.33271110171861945,-0.5744295347392558,-4.531266295820474
1783337833044038100,7.3510380859375,-0.18084639649391174,-0.519985996890068,-4.468640328298509
1783337833054011100,7.36101123046875,-0.9696843325238674,-0.6330009661734104,-3.2685388550996777
1783337833063983900,7.37098388671875,-1.209361834301427,-0.5807376949727535,-2.0633318754553795
1783337833073956900,7.380956787109375,-1.1865057863056658,-0.24948563295602796,-1.1686696853637695
1783337833083930000,7.39093017578125,-1.1073919175803661,0.12219839269220828,-0.6783619106397032
1783337833093902000,7.400902099609375,-1.2769735543467104,0.2093523600101471,-0.27563568099588154
1783337833103874800,7.410874755859375,-1.8327520184993742,-0.08964110795855522,0.05034866975098848
1783337833113848000,7.42084814453125,-2.323265252667665,-0.17557108643949032,0.4140852435261011
1783337833123821000,7.430821044921875,-2.659561738592386,-0.23228373826444149,0.7899430477276443
1783337833133794000,7.4407939453125,-2.927721676880121,-0.3120820821225643,1.1377212971314787
1783337833143767000,7.45076708984375,-3.2416590314805505,-0.4406359813213348,1.5003054860010743
1783337833153740000,7.460739990234375,-3.478853338140249,-0.6568909603267907,1.8403072561845182
1783337833163712000,7.4707119140625,-3.514635430139303,-0.9386848716914653,2.3110408541277048
1783337833173685000,7.48068505859375,-3.343114495873451,-1.2598948476433753,2.821791405160725
1783337833183658200,7.490658203125,-2.9662600818499922,-1.7284411646753548,3.12022080950588
1783337833193631000,7.500630859375,-2.3021182736121117,-2.119752850857377,3.415670613518357
1783337833203604000,7.51060400390625,-1.4292356613911688,-2.356796350869536,3.5710748179808256
1783337833213577000,7.520576904296875,-0.815927091550827,-2.510394674953818,3.7567777145951986
1783337833223549200,7.530549072265625,-0.5419231034100055,-2.616557878646254,3.981907489451766
1783337833233522000,7.54052197265625,-0.34774990009218454,-2.7259295229911804,4.109305788874626
1783337833243495000,7.550494873046875,-0.056272068450599906,-2.711855989453196,3.9712387959212063
1783337833253468200,7.56046826171875,0.37922143541574477,-2.400048632618785,3.588777063409984
1783337833263441200,7.570441162109375,0.7626536934595555,-2.008721748867631,3.0787925283133983
1783337833273414000,7.580413818359375,1.1356722556471823,-1.5572265198796986,2.529185300141573
1783337833283386000,7.59038623046875,1.657222579244524,-1.0380307965844868,1.938580583409965
1783337833293359000,7.600359130859375,2.3284582912661134,-0.5659884541302919,1.1957958849593997
1783337833303332000,7.61033203125,2.8695664250314232,-0.07541267611980437,0.4609747127339244
1783337833313304800,7.620304931640625,2.8752187517046925,0.37564065431952476,-0.12610709056854247
1783337833323277800,7.63027783203125,2.4769302122473715,0.7117109302729367,-0.5858318032413721
1783337833333251000,7.6402509765625,1.9193021747052668,0.9504887067317962,-1.1072668298959731
1783337833343223000,7.65022314453125,1.2803168734252452,1.016066217535734,-1.6045070342317223
1783337833353196000,7.660196044921875,0.774343035274744,0.8075695975720882,-1.9602768669113515
1783337833363169000,7.6701689453125,0.6119335551600903,0.5546773710429668,-2.2750933424338697
1783337833373142000,7.68014208984375,0.8018400409441441,0.36022856565415856,-2.5263570909783244
1783337833383115000,7.690114990234375,1.255012920820713,0.30985856085419655,-2.722934725089371
1783337833393088000,7.700087890625,1.7913783901035785,0.42892976143658157,-2.892118156318366
1783337833403061000,7.71006103515625,2.175903777146339,0.6512520776569843,-3.087062344008684
1783337833413033000,7.720032958984375,2.219858654206991,0.83110244885087,-3.2924542759552597
1783337833423006000,7.730005859375,1.9054864153206348,0.7679886978119611,-3.402902609620988
1783337833432979200,7.739979248046875,1.5002397272884844,0.6268757612913847,-3.0125860719561577
1783337833442952000,7.749951904296875,1.2429273462295531,0.5790139399200678,-2.342529048325121
1783337833452925000,7.759925048828125,1.0110019198834896,0.8288000171273946,-2.111209771178663
1783337833462898000,7.76989794921875,0.8327613219738006,1.287665482622385,-1.9556915849477052
1783337833472870100,7.7798701171875,0.668947893345356,1.905810240447521,-1.536334246237576
1783337833482843000,7.7898427734375,0.29759879873991013,2.5905671128213403,-0.9221920020520686
1783337833492816000,7.79981591796875,-0.17898295897589994,3.1440222485929725,-0.3066191405415535
1783337833502789000,7.8097890625,-0.5549439130246638,3.511795238277316,0.34899142458587884
1783337833512762000,7.81976220703125,-0.6942085913300514,3.6325831796497106,0.9215782540678977
1783337833522735000,7.829735107421875,-0.6374012469589709,3.4488410617142913,1.1874454052433372
1783337833532707000,7.83970703125,-0.6473287667334079,2.89130011793375,1.2037111881285905
1783337833542680000,7.84968017578125,-0.6583914280176162,1.9648750083565711,1.080542635229975
1783337833552653000,7.859653076171875,-0.7348363697946071,0.8503361416310071,1.3692410652860998
1783337833562626000,7.8696259765625,-0.7290542792618274,-0.3888315598040819,2.4746043996483085
1783337833572599000,7.87959912109375,-0.40541152320504187,-1.2159861478120089,3.648462009043991
1783337833582572000,7.889572021484375,-0.21891864525675772,-1.6173112784862518,4.473821238067746
1783337833592544000,7.8995439453125,-0.22229893534481523,-1.800748860517144,5.033253694683313
1783337833602517200,7.909517333984375,-0.3130284230619669,-1.7439450232774019,5.044339736843109
1783337833612490000,7.919489990234375,-0.2082400148540735,-1.640276559010148,4.889554248800874
1783337833622463000,7.929462890625,-0.20623685833811758,-1.46458915271461,4.836159927743673
1783337833632436000,7.93943603515625,-0.29230007127728314,-1.1994827567785977,4.404143013946712
1783337833642409000,7.949408935546875,-0.6142044957667588,-1.053636946517229,3.586600303892791
1783337833652382700,7.9593828125,-1.150773963189125,-1.002080946803093,2.6857293222889305
1783337833662354700,7.969354736328125,-1.6843717213243246,-1.0219646279245613,2.030458364379406
1783337833672327700,7.97932763671875,-2.009073631045222,-0.8860919301450252,1.6319922763980925
1783337833682301000,7.989301025390625,-2.3479887750357387,-0.8188093689888716,1.0189936492897569
1783337833692273700,7.999273681640625,-2.5182886430740354,-0.6308914266735315,0.4470109231807291
1783337833702246700,8.00924658203125,-2.9361861383646723,-0.6437520772904157,-0.03689852880835533
1783337833712219600,8.0192197265625,-3.399869817796349,-0.7502841142952442,-0.0006841828718781471
1783337833722192000,8.02919189453125,-3.868927006959915,-0.5958014085918665,0.3204486361905932
1783337833732164600,8.03916455078125,-4.205162702608108,-0.38124855732917784,0.43961620981954036
1783337833742137600,8.0491376953125,-4.092548715341091,-0.17021511236429213,0.277532965984568
1783337833752110600,8.059110595703125,-3.770611009636521,-0.1423445241421461,0.26702450451701876
1783337833762083800,8.069083740234374,-3.309466493293643,-0.03309562939405441,0.1485487125445157
1783337833772056800,8.079056884765626,-2.6806653168976307,0.0379804788261652,-0.14906747572161255
1783337833782028800,8.08902880859375,-1.8887813642352818,0.1959504421234131,-0.0212193867046386
1783337833792001800,8.099001708984375,-0.9372480438213795,0.29474691644012924,-0.14797661174498497
1783337833801974800,8.108974853515624,-0.09049217182993888,0.11909750406742095,-0.9684764911040663
1783337833811947800,8.11894775390625,0.7319627140544355,-0.04870470193624496,-1.8574439766854047
1783337833821920500,8.12892041015625,1.5131599991381168,-0.23485972623229026,-2.4565286447316406
1783337833831893800,8.138893798828125,2.207286757403612,-0.46049394347965716,-2.7295599884480235
1783337833841865700,8.14886572265625,2.7767525322556494,-0.5891513030529022,-2.672500715142488
1783337833851838700,8.158838623046876,3.111589467021823,-0.6848094793438911,-2.383108311472833
1783337833861811700,8.168811767578125,3.0458646567016836,-0.7627285853266715,-2.0447844113737346
1783337833871784700,8.17878466796875,2.529622522515058,-0.8191963224798441,-1.9137465864047407
1783337833881757700,8.1887578125,1.801311316705495,-0.6791553991049528,-1.721674008627981
1783337833891730700,8.198730712890624,1.2314625338852405,-0.4662199199110269,-1.3091864095568657
1783337833901702700,8.20870263671875,0.7633056545622646,-0.44774142941236494,-1.0075805671326816
1783337833911675600,8.218675537109375,0.3549013792820275,-0.4428595025897026,-0.7182025573145597
1783337833921648600,8.228648681640625,0.006081511870771646,-0.38061668916642666,-0.295403919044137
1783337833931622000,8.238621826171874,-0.3152377696745097,-0.3039619040310383,0.11115348626039921
1783337833941595000,8.248594970703126,-0.6359544091515242,-0.3012923925608396,0.18532091155946254
1783337833951567600,8.258567626953125,-0.8006823222763836,-0.30647301006913186,0.17909188097678125
1783337833961539800,8.268539794921875,-0.804458333683759,-0.26548224351108074,0.1661150566343218
1783337833971512800,8.278512939453124,-0.7215116087973117,-0.2384603810727596,0.047493718711286784
1783337833981485600,8.288485595703126,-0.4938016081891954,-0.2635872235447168,-0.12221081378236412
1783337833991458600,8.29845849609375,-0.1303758539289236,-0.3177583741933107,-0.25596907669119534
1783337834001431800,8.308431884765625,0.3296009338088333,-0.37599253649711606,-0.4049444902151823
1783337834011404800,8.31840478515625,0.7458851486839354,-0.3584089490115642,-0.5590018831785768
1783337834021376500,8.32837646484375,1.0794731063023209,-0.36287878790199757,-0.6955298299964517
1783337834031349800,8.338349853515625,1.3433783097550271,-0.41265901011526585,-0.7816479514606297
1783337834041322800,8.34832275390625,1.6216661126948893,-0.3204308082729578,-0.8591600840777158
1783337834051295700,8.358295654296874,1.815498247490078,-0.02323825224637985,-1.0180787994671612
1783337834061268700,8.368268798828124,1.9941607240736483,0.44880642829537387,-1.2897550022475421
1783337834071241700,8.37824169921875,2.1452277761146425,0.9352771090745925,-1.721033957158774
1783337834081213700,8.388213623046875,2.306016011703014,1.3053221353441475,-2.2281473207332194
1783337834091186700,8.398186767578125,2.49120014514029,1.5042776045024393,-2.6304721299692986
1783337834101160000,8.408159912109374,2.6428426589816807,1.5594406887978314,-2.94021875488162
1783337834111132700,8.418132568359376,2.7364816044047475,1.4472346978098154,-3.26590499946475
1783337834121105700,8.428105712890625,2.845099507772922,1.196796878695488,-3.5575635945007202
1783337834131078700,8.43807861328125,3.0676024412572382,0.9075620036751031,-3.586712532095611
1783337834141051000,8.44805078125,3.2922295272886752,0.7738438535809516,-3.356356254762411
1783337834151023600,8.458023681640626,3.4160160659551617,0.7593015334874391,-2.9465263305932283
1783337834160996600,8.46799658203125,3.2923736119344826,0.9301946912437676,-2.4922978772491216
1783337834170969600,8.477969482421875,2.8538047922760246,1.2343389661043882,-2.0998661009959876
1783337834180942800,8.48794287109375,2.2887772921323775,1.5779460673034191,-1.818259382766485
1783337834190915800,8.497915771484376,1.8551760317534207,1.8601772010415791,-1.6407506062626838
1783337834200888600,8.507888671875,1.6019360146999357,2.0856366462439295,-1.5672034317538142
1783337834210860800,8.51786083984375,1.4606436299592256,2.289677455842495,-1.5503830837257206
1783337834220833800,8.527833740234374,1.3313146547347305,2.4087960026979447,-1.4768398547396062
1783337834230806800,8.537806884765626,1.1885213639117778,2.4049796592801806,-1.4301491229742764
1783337834240779500,8.547779541015625,1.051192622105032,2.1590157707095146,-1.3938538207560778
1783337834250752800,8.557752685546875,0.9948030647546052,1.8195342250078916,-1.2813885943099856
1783337834260725800,8.567725830078125,1.0345569829940795,1.5773089384436607,-1.1508119571119546
1783337834270697700,8.57769775390625,1.1452084380164742,1.3910434395104645,-0.9497847962461411
1783337834280670700,8.587670654296875,1.1233451273851096,1.0787287176758051,-0.6547929651342332
1783337834290643700,8.597643798828125,0.8937250553719699,0.5862111579477787,-0.3074091218754649
1783337834300616700,8.60761669921875,0.6008988778613508,0.15723054310679435,0.11091945830881594
1783337834310589700,8.617589599609374,0.5327952095806598,0.22398002029955386,0.4129910185486078
1783337834320561700,8.627561767578126,0.6100000298142433,0.43727381141185756,0.7908751409459859
1783337834330534700,8.63753466796875,0.8900006280213594,0.7253589318752288,1.006015948164463
1783337834340507600,8.647507568359375,0.9729091397892683,1.1358417669951915,1.1572437437251208
1783337834350481000,8.65748095703125,0.8007417243134229,1.4145698610484598,1.551005015016347
1783337834360453600,8.66745361328125,0.46732459321729836,1.4655916077554225,2.273750403392315
1783337834370426600,8.677426513671875,0.18116437640190122,1.4239455921590327,2.925129614560306
1783337834380398800,8.68739892578125,-0.034427133726142346,1.3537602952986956,3.27045608689785
1783337834390371800,8.697371826171874,-0.4035509900301695,1.2646844200074672,3.407619409009814
1783337834400344600,8.707344482421876,-1.0212433279126882,1.187016658437252,3.2812788019463417
1783337834410317600,8.717317626953125,-1.4992776042580604,1.2728566205471754,3.1650147677391764
1783337834420290800,8.727290771484375,-1.773244182997942,1.1379945611149072,3.0433956362396475
1783337834430263800,8.737263916015625,-1.9031448206305503,0.7125164014369249,2.4164237210974098
1783337834440235500,8.747235595703126,-1.5604770461082458,0.11018588333725929,0.9041931117638945
1783337834450208800,8.757208740234375,-0.5800421139240265,-0.19142916530668735,-0.8827069638818502
1783337834460181800,8.767181640625,0.016034604477882384,-0.2816074488818645,-1.961471629653871
1783337834470154800,8.77715478515625,-0.348436969040893,-0.4888415015637874,-2.3080830272354182
1783337834480127700,8.787127685546874,-0.902610518747568,-0.6073720193982124,-2.2607902379237115
1783337834490100700,8.797100830078126,-0.9006979631245136,-0.5348083029687404,-1.5762411630816757
1783337834500072700,8.80707275390625,-1.071198395236209,-0.4269032240450382,-0.4740440376654267
1783337834510045700,8.817045654296875,-1.4289469075776635,-0.47333413583040235,0.3036915626570582
1783337834520018700,8.827018798828124,-1.865108812224865,-0.668019088062644,0.4951005619585514
1783337834529991700,8.83699169921875,-2.42202724019289,-0.7132540680617093,0.545156093981862
1783337834539964700,8.846964599609375,-2.8965806886851784,-0.7068330951035022,0.5156488444685936
1783337834549937700,8.856937744140625,-3.091909199517965,-0.732719816032052,0.6400903399124741
1783337834559910000,8.866909912109374,-3.182201464861631,-0.7752583965539932,0.9759346981555223
1783337834569882600,8.876882568359376,-3.1685330049932,-1.0097679941743611,1.3812939066514371
1783337834579855600,8.886855712890625,-3.0855636298835276,-1.3565993181169032,1.8563865765869616
1783337834589828600,8.89682861328125,-2.808379842662811,-1.6557605438679455,2.2645801317259666
1783337834599801900,8.9068017578125,-2.412578005454689,-2.085406929141283,2.5710285918757316
1783337834609774800,8.91677490234375,-2.0432805826820433,-2.587651517635584,3.009589812749624
1783337834619746600,8.92674658203125,-1.6068590041853485,-2.7684499833345413,3.3222187150999902
1783337834629719800,8.9367197265625,-1.21221656614542,-2.8846640409201383,3.711774205264449
1783337834639692800,8.94669287109375,-0.9393253615520893,-2.9635458544552327,3.948028892986476
1783337834649665800,8.956665771484374,-0.7727614651717245,-2.970315202459693,3.9010786335021255
1783337834659637200,8.96663720703125,-0.47222369037047024,-2.9499294170349835,3.7447602368041872
1783337834669610000,8.97660986328125,0.18417554091662167,-2.658395617422461,3.5927944823578
1783337834679582200,8.986582275390624,0.8339652909360825,-2.315231583815813,3.2579815129891037
1783337834689555200,8.99655517578125,1.507359203904867,-1.9803402885138988,2.6175851758673785
1783337834699528200,9.006528076171875,2.264221527546644,-1.537466172876954,1.7031714066013692
1783337834709501000,9.0165009765625,2.924648260784149,-0.9865776727229356,0.7906690239146351
1783337834719474200,9.02647412109375,3.084410952717066,-0.39189737711548805,0.04048515512347221
1783337834729447200,9.036447265625,2.628209153473377,0.06752513774037361,-0.8180386768773198
1783337834739419100,9.046419189453125,1.9179988370217382,0.5024702139437198,-1.5925760656803845
1783337834749392100,9.05639208984375,1.5552724632024764,1.0374293235599994,-2.280484387822449
1783337834759365000,9.066365234375,1.6479181598044932,1.525507439535856,-2.928774985325336
1783337834769338000,9.076338134765624,1.891723116775602,2.0576661047786473,-3.4801118137687443
1783337834779311000,9.08631103515625,2.1382991458952425,2.519869774785638,-3.843174433805048
1783337834789284400,9.096284423828125,2.269225034922361,2.834191744789481,-3.7656779371485114
1783337834799256000,9.106256103515625,2.3512919082343577,2.9501883602321146,-3.3041961516752836
1783337834809229000,9.11622900390625,2.1930114176832136,2.82242590367198,-2.8574326273843647
1783337834819202300,9.126202392578126,1.799374649554491,2.5021751281410456,-2.5633862604290245
1783337834829175300,9.13617529296875,1.3649930524528027,2.0701468161672354,-2.1606109309464694
1783337834839148000,9.14614794921875,0.9628513446986675,1.730526154255867,-1.8391133702248335
1783337834849120300,9.156120361328124,0.665361267030239,1.7595125947654247,-1.4852417723819613
1783337834859093200,9.16609326171875,0.475682744783163,2.275896767771244,-0.8932574378602206
1783337834869066200,9.176066162109375,0.16098551172614098,3.0865801134496924,-0.41715544475167987
1783337834879039000,9.1860390625,-0.3239935057232156,3.96397669596374,-0.22399551012963057
1783337834889012200,9.19601220703125,-0.768619396930933,4.667818792557716,-0.2183757705517113
1783337834898985200,9.205985107421874,-1.240717853486538,4.677441776427626,-0.17224179588630795
1783337834908957200,9.215957275390625,-1.6625953583240507,3.627217268702388,0.04579202935993671
1783337834918930200,9.22593017578125,-2.0249977608859537,1.560994932502508,0.45218642612248655
1783337834928903200,9.235903076171875,-2.3884523028492928,-0.45547056235969063,1.328691612754762
1783337834938876200,9.245876220703124,-2.66192320702672,-1.94094877384603,2.6419869189351797
1783337834948849200,9.25584912109375,-2.955689880257845,-2.77412218375206,3.856695886418223
1783337834958822100,9.265822265625,-2.8958628958046435,-3.136997464522719,4.621491925668717
1783337834968794000,9.275794189453125,-2.5576737280011175,-3.4501246717840433,4.879848555083573
1783337834978767000,9.28576708984375,-1.9743162059187889,-3.665142802470922,4.834346156319976
1783337834988740000,9.295739990234376,-1.4179589189648627,-3.7425603886723517,4.563790262806415
1783337834998713300,9.30571337890625,-1.1159738679647444,-3.5278380260616538,3.9386885254502295
1783337835008686000,9.31568603515625,-1.0822715048491953,-2.582206696233153,3.1324908007532355
1783337835018659000,9.3256591796875,-1.1103881767868995,-1.4410866965740918,2.7872522989600896
1783337835028632000,9.335632080078126,-1.2348720500677823,-0.12816928379535675,2.3141522641465064
1783337835038605300,9.345605224609375,-1.7484920190572737,0.8494640349715947,1.375676651291549
1783337835048577000,9.355576904296875,-2.355008298408985,1.3956629160046576,0.40811581372767686
1783337835058550000,9.365550048828124,-2.54782161155045,1.5445540853112936,0.15714016140960155
1783337835068523300,9.375523193359374,-2.5914883193194864,1.3422685949474573,-0.07860906100831926
1783337835078496300,9.385496337890626,-2.5203683719575403,0.7480570858955383,-0.29049072030037637
1783337835088469000,9.395468994140625,-2.317029573148489,0.08995733430087566,-0.5335336068578064
1783337835098441200,9.405441162109375,-2.008669726419449,-0.4087386218011379,-0.5230362513061613
1783337835108414200,9.415414306640624,-1.6827414897739885,-0.6815671364217997,-0.3817316646710038
1783337835118387200,9.42538720703125,-1.2586042233109473,-0.8224012560009956,-0.29303134469389913
1783337835128360000,9.43535986328125,-0.6804764185756444,-0.7993482971936464,-0.4326597417451441
1783337835138333200,9.445333251953125,-0.024189196295663712,-0.6383662925988436,-0.8185223687410355
1783337835148306200,9.45530615234375,0.6463117717105895,-0.4112731087148189,-1.2798407803460954
1783337835158278100,9.465278076171876,1.2304273456186055,-0.3309410963714123,-1.7588094149321316
1783337835168251100,9.475251220703125,1.6579232748597859,-0.4028559935033321,-2.088619461447
1783337835178224000,9.48522412109375,1.8254092545211313,-0.6576385638236999,-2.183093980911374
1783337835188197000,9.495197021484374,1.7811966033071278,-0.8525620009869337,-2.202950774025917
1783337835198170000,9.505170166015626,1.5326112801916896,-0.9536930557310581,-2.0214324696198105
1783337835208143400,9.515143310546875,1.0877911450535058,-1.0172118804395198,-1.8218693899571894
1783337835218115000,9.525114990234375,0.6183386729620397,-1.0711609127700328,-1.6962575355596838
1783337835228088000,9.535088134765624,0.18282091143727303,-0.9993342784434557,-1.5730787535279989
1783337835238061300,9.545061279296876,-0.14819398082271218,-0.8951140255123377,-1.4620955823332071
1783337835248034300,9.555034423828126,-0.4208535686172545,-0.7953694566905498,-1.314952425737679
1783337835258007000,9.565007080078125,-0.6482336066186428,-0.7525894686281681,-1.1181011623170227
1783337835267980000,9.57497998046875,-0.8065056946676225,-0.7262263623595238,-0.9022761722266673
1783337835277952300,9.5849521484375,-0.8474860128968954,-0.7253332129120826,-0.7034352693587541
1783337835287925200,9.59492529296875,-0.7590412751160561,-0.6545692393809557,-0.5199930111527442
1783337835297898000,9.60489794921875,-0.6777022776871919,-0.6050538055837154,-0.3416447150848806
1783337835307871000,9.61487109375,-0.5380696428522467,-0.49376902109384535,-0.22253186731785535
1783337835317844200,9.62484423828125,-0.3376699662350118,-0.32593992708325387,-0.1638514956165105
1783337835327816200,9.634816162109376,-0.0963514192521572,-0.15540975742042062,-0.08823935140185057
1783337835337789200,9.6447890625,0.17499752433523535,0.024207974061369895,-0.05597600811347365
1783337835347762200,9.65476220703125,0.4747790739417076,0.11653145297169684,-0.07461816474124788
1783337835357735200,9.664735107421874,0.7900900549829005,0.1714671582520008,-0.130994278088212
1783337835367708200,9.674708251953126,1.0907644617758692,0.13591302978992462,-0.19007431663163005
1783337835377680100,9.68468017578125,1.2757687086015939,0.048045361244678494,-0.22519688527602702
1783337835387653000,9.694653076171875,1.3845733667135238,-0.022332243317365646,-0.3108149847961962
1783337835397626000,9.704626220703124,1.4815258205987512,0.011333879441022873,-0.40479978451486676
1783337835407599000,9.71459912109375,1.4779825950339436,0.230949274790287,-0.5698673779228702
1783337835417572000,9.724572021484375,1.4766573377795515,0.5845540383905172,-0.8314051581244916
1783337835427544000,9.7345439453125,1.532600320406258,0.9741817170083522,-1.164189690405503
1783337835437517000,9.74451708984375,1.6578303358793258,1.355021693536639,-1.5281407106488942
1783337835447490300,9.754490234375,1.7922358837157486,1.5917103887617587,-1.9500828051552175
1783337835457463000,9.764463134765625,1.951924341368675,1.6033850444644688,-2.424393530932814
1783337835467436000,9.77443603515625,2.1853063962638375,1.4666682970762253,-2.803668888492882
1783337835477409000,9.784408935546875,2.4378895568437873,1.2676514531195162,-3.1475621131569147
1783337835487381200,9.79438134765625,2.597036016574502,1.105991403132677,-3.4437168505683537
1783337835497354000,9.80435400390625,2.738087286035716,0.9667968674540519,-3.6776571238681672
1783337835507327000,9.814326904296875,2.8157161769002674,0.8932078996300696,-3.810275788287818
1783337835517300200,9.82430029296875,2.834205188792944,1.003617654851079,-3.86443174136728
1783337835527273200,9.834273193359374,2.6977985302671788,1.1778987014800308,-3.9143557559654116
1783337835537245000,9.844244873046875,2.4177707517921925,1.305146194255352,-3.895012757591903
1783337835547218200,9.85421826171875,2.0555156487464905,1.4476216513007878,-3.8439398652195926
1783337835557191200,9.864191162109375,1.7425415862202642,1.7289000143587587,-3.749547178819775
1783337835567164200,9.8741640625,1.4999226241633294,1.9308868140369653,-3.673071841904521
1783337835577137200,9.88413720703125,1.282458269368112,1.9229022450238464,-3.4541917750924824
1783337835587110100,9.894110107421875,1.0847592300117015,1.7276684267371891,-3.1607395746380087
1783337835597082000,9.90408203125,0.9988362657934426,1.4218290383964776,-2.8335449713185428
1783337835607055000,9.91405517578125,0.9996278545625508,1.1332757158994673,-2.419420564825833
1783337835617028400,9.9240283203125,1.0171640957750379,0.8727788595855236,-1.7958977672241627
1783337835627001000,9.9340009765625,0.9851030701257288,0.6569792231321334,-0.9970414182659239
1783337835636974000,9.94397412109375,0.8750251772075891,0.5700795228362083,-0.09224705267325044
1783337835646946300,9.9539462890625,0.7435328864693641,0.7250111413508653,0.8014212310101837
1783337835656919600,9.96391943359375,0.7713929532974958,1.041820251995325,1.680458347272873
1783337835666892500,9.973892578125,0.749928140464425,1.5310153893023728,2.572016141608357
1783337835676865500,9.983865478515625,0.7421065799932927,2.000507462751865,3.2176451186865567
1783337835686838300,9.99383837890625,0.7436082897931336,2.327887067249417,3.625074995976686
1783337835696811500,10.0038115234375,0.41665366924200203,2.3145927013903855,4.032109151947498
1783337835706783500,10.013783447265626,-0.2621013689011335,2.0147645361632107,4.34387851485908
1783337835716756500,10.023756591796875,-1.0332815562307833,1.6937521286100148,4.4113107136189935
1783337835726729500,10.0337294921875,-1.6669839486718177,1.3886609282881022,4.2453287087798115
1783337835736702500,10.043702392578124,-2.3270167141556737,1.0294003308832644,3.71251830163002
1783337835746675500,10.053675537109376,-3.1246143682897087,0.7214455578237772,2.847343779568374
1783337835756647700,10.063647705078125,-3.745558985966444,0.6239999135941267,2.191155268422514
1783337835766620400,10.073620361328125,-3.729416829460859,0.1852653819799423,1.223349516186863
1783337835776593400,10.083593505859374,-2.6995348525404927,-0.38871173281669613,-0.4791853460766375
1783337835786566400,10.09356640625,-0.46126032474227247,-0.9749871881723403,-2.8341443985164165
1783337835796539600,10.10353955078125,0.6403998442530632,-1.3107201949954033,-4.987438284447789
1783337835806512400,10.113512451171875,-0.2678361862260848,-1.2054197456121445,-5.224657725548744
1783337835816484400,10.123484375,-0.9243874662697315,-0.8216279335409402,-4.016461208699643
1783337835826457600,10.13345751953125,-0.9972119525272398,-0.4763824174851179,-2.634941676598787
1783337835836430600,10.1434306640625,-1.1550153270859271,-0.3180810302764177,-1.3671505227476357
1783337835846403300,10.1534033203125,-1.4604875626146792,-0.25893559834659097,-0.43097032735347746
1783337835856376300,10.163376220703125,-2.0835726994514463,-0.31035540446043014,-0.33783436301648617
1783337835866348500,10.1733486328125,-2.646453250694275,-0.270998376584053,-0.3442448145806789
1783337835876321500,10.183321533203125,-2.9324270780920982,-0.037304771521687506,-0.07324702251851559
1783337835886294300,10.193294189453125,-3.085574151277542,0.0635042116612196,0.31643793924450875
1783337835896267500,10.203267578125,-3.2993957656562327,-0.050368835756182666,0.7941571582913398
1783337835906240500,10.213240478515624,-3.5614217312335965,-0.3367512439548969,1.3624790238052606
1783337835916212500,10.22321240234375,-3.7379578633129595,-0.6648772829055786,2.131771205431223
1783337835926185500,10.233185546875,-3.646545654028654,-1.074248941913247,2.8312404937684534
1783337835936158500,10.243158447265625,-3.4936230372488497,-1.5258394479691981,3.354282663358748
1783337835946131500,10.25313134765625,-3.1552725414037703,-2.0248902088582517,3.7893028506249187
1783337835956104400,10.2631044921875,-2.6513947987496853,-2.4318548067241905,4.177656856045127
1783337835966077400,10.273077392578125,-2.0650433555483816,-2.703303849685192,4.452546394848823
1783337835976049400,10.28304931640625,-1.6996878022693096,-2.871583025550842,4.566528163337707
1783337835986022400,10.2930224609375,-1.5054421182371676,-2.923797781434655,4.492687851101159
1783337835995995600,10.30299560546875,-1.2207936942242086,-2.9428648854762316,4.300196317259967
1783337836005968600,10.31296875,-0.7351457280047238,-2.9208389316290617,4.056512648580968
1783337836015941400,10.32294140625,-0.14087094445824622,-2.746355640426278,3.7372692965269088
1783337836025913600,10.33291357421875,0.3447638700187206,-2.3160516680270433,3.5140231434598563
1783337836035886600,10.342886474609376,0.7460789176903665,-1.8946487949639557,3.0938848835051056
1783337836045859600,10.352859619140625,1.3778722616396843,-1.4638105695575474,2.3251894987285135
1783337836055832300,10.362832275390625,2.069230870366096,-0.8473638478219508,1.6631781266480683
1783337836065805300,10.372805419921875,2.2405472219705582,-0.18634440938830374,1.1129223714396357
1783337836075778600,10.382778564453124,1.9368714414045214,0.28845687638521195,0.48764410847276446
1783337836085750500,10.39275048828125,1.5380873735152185,0.5796574985206127,-0.3646457975745201
1783337836095723300,10.40272314453125,1.49083009390831,1.026728481325507,-1.2001917818307877
1783337836105696500,10.412696533203125,1.7472388041257858,1.7442232556968926,-2.0006828193187713
1783337836115669500,10.42266943359375,2.2300421945691107,2.5261983932852745,-2.995483253724873
1783337836125642500,10.432642578125,2.866872948163748,3.2001363500028845,-4.009225704488158
1783337836135614500,10.442614501953125,3.4137200639724727,3.570238659417629,-4.628302482466399
1783337836145587500,10.45258740234375,3.3331729475736616,3.3306799617141483,-4.6380879634216425
1783337836155560400,10.462560546875,2.7090111214160917,2.5389082372546197,-4.439338538229465
1783337836165533400,10.472533447265626,1.9918027627706527,1.439723007005453,-4.033986928518116
1783337836175506400,10.48250634765625,1.305901396536827,0.4887731125026941,-3.201286981342733
1783337836185478400,10.492478515625,0.9396890072327106,-0.18000000879764555,-2.549748780220747
1783337836195451400,10.502451416015624,1.0609949080646037,-0.4661830950319767,-2.6020026990711687
1783337836205424600,10.512424560546876,1.2049871994137764,-0.5704869345933199,-3.2360689563885328
1783337836215397400,10.5223974609375,1.1020728414494543,-0.29872458789944645,-3.596529869493842
1783337836225370400,10.532370361328125,0.6564484772562981,0.49035249064862724,-3.335256768110394
1783337836235343400,10.54234326171875,-0.4033960917294025,1.62645320084095,-2.6845424505919215
1783337836245315600,10.552315673828126,-1.9150491934359073,2.6691642641961573,-1.9640128385692834
1783337836255288300,10.562288330078125,-2.852586064136028,3.454034538704157,-1.2355503877207636
1783337836265261300,10.57226123046875,-2.683495571887493,4.00500721001029,-0.8770938001751899
1783337836275234600,10.582234619140625,-2.2072294742584226,4.03822383543551,-0.5661955210097134
1783337836285207600,10.59220751953125,-2.0442729547202587,3.1785254066973923,0.14344897825270891
1783337836295179300,10.60217919921875,-2.1624141809761523,1.6819979779303074,1.0566678386457264
1783337836305152500,10.612152587890625,-2.336969952893257,0.06471943266987801,2.2068350681133566
1783337836315125500,10.62212548828125,-2.3425778559029102,-1.1784323699653148,3.7447614058479664
1783337836325098500,10.632098388671874,-1.8656909960269927,-1.8625690646141766,5.176984704747796
1783337836335071500,10.642071533203126,-1.1083610548734664,-2.4482126518070695,5.834147467753291
1783337836345043500,10.65204345703125,-0.33775077638626094,-2.9755174472779036,5.722849239259958
1783337836355016400,10.662016357421875,0.2220598293593153,-3.386492449828982,5.334576482382416
1783337836364989400,10.671989501953124,0.5409738398611545,-3.3755502000540494,4.892492640340328
1783337836374962700,10.681962646484376,0.6190554429292678,-2.7737024970352646,4.254826604965329
1783337836384935400,10.691935302734375,0.2577425709034316,-1.598606578016281,3.8939638330608606
1783337836394908400,10.701908447265625,-1.0244587828278542,-0.45727264334559437,3.595986848658323
1783337836404880600,10.711880615234374,-2.7364941716253757,0.26779870375990866,2.7522885376065966
1783337836414853600,10.721853515625,-3.96699808961153,0.6125859546542167,1.6939815534517169
1783337836424826400,10.731826416015625,-4.621488418537378,0.5588625477731227,0.8615398918863385
1783337836434799400,10.74179931640625,-4.974524442338943,0.2996551467478275,0.26955906449593603
1783337836444772600,10.751772705078125,-5.175859500110149,-0.05248363595306873,-0.032848449699953194
1783337836454744600,10.76174462890625,-5.025928466361761,-0.2518552846968174,0.0005697627119719982
1783337836464717300,10.77171728515625,-4.624072005289793,-0.3766296653568744,0.1722860734194517
1783337836474690600,10.781690673828125,-4.0909997323334215,-0.5954951191216706,0.39691257492899895
1783337836484663600,10.79166357421875,-3.496634494024515,-0.8891501486718654,0.598826455501467
1783337836494636500,10.801636474609374,-3.0365292576014995,-1.0760083528012037,0.668833546250686
1783337836504608500,10.8116083984375,-2.6022943754941226,-0.9997592258572577,0.5980391045160591
1783337836514581500,10.82158154296875,-1.9048153841912745,-0.514379847446084,0.4334928315684199
1783337836524554500,10.831554443359375,-0.8375596621662378,0.27648060738742347,0.13470241189114748
1783337836534527500,10.841527587890624,0.7211253128934652,0.8489765437155962,-0.35980887893736363
1783337836544500500,10.85150048828125,2.349146712899208,0.8535054193168878,-1.0617377623211592
1783337836554472400,10.861472412109375,3.6062691732197996,0.4822983635306358,-2.070762317717075
1783337836564445400,10.871445556640625,4.618325570592284,-0.02285188327729702,-2.800364293989539
1783337836574418400,10.88141845703125,5.197563966917992,-0.5366454552680253,-3.1883485893145203
1783337836584391400,10.891391357421876,5.102261179935931,-0.9638882865309715,-3.357381213895976
1783337836594364400,10.901364501953125,4.212812925100327,-1.177501226595044,-3.2493639067694544
1783337836604337400,10.91133740234375,2.8528777405589816,-1.0719751517623661,-2.9292078237846493
1783337836614309600,10.9213095703125,1.4746967052310704,-0.7417851660192012,-2.540945880562067
1783337836624282400,10.931282470703126,0.3476093225777149,-0.537349219623208,-2.2032008032642305
1783337836634255400,10.94125537109375,-0.4718628942340612,-0.5207359384745359,-1.9543948231354356
1783337836644228400,10.951228271484375,-1.0938999833226204,-0.6140665486007928,-1.7304203557938336
1783337836654201000,10.961201171875,-1.5707950265049933,-0.6610024872988463,-1.446981892092526
1783337836664173000,10.971173095703126,-1.9586562799721956,-0.6600047084331512,-1.1895485880676657
1783337836674146000,10.98114599609375,-2.1768360895603895,-0.5856091004014015,-0.9361633903898298
1783337836684119000,10.991119140625,-2.0826151064656675,-0.4669634317547083,-0.7747688594713806
1783337836694092000,11.001092041015625,-1.573801807105541,-0.34496669911444183,-0.780850590537861
1783337836704065000,11.01106494140625,-0.8604458861045539,-0.22543255719542502,-0.7522047801595181
1783337836714037200,11.021037353515625,-0.2859514694355428,-0.07006488535106181,-0.7454049639515579
1783337836724010000,11.031010009765625,0.17312836946249008,0.13214987786412238,-0.8032181974295526
1783337836733983000,11.04098291015625,0.6211100373715162,0.21654314829707144,-0.8329705077450722
1783337836743956000,11.0509560546875,1.1661878054201602,0.054964346852898596,-0.7676585160095244
1783337836753929200,11.06092919921875,1.7197535619594155,-0.11524199768304824,-0.7565951971381902
1783337836763901000,11.07090087890625,2.1468816808015108,-0.16295476597249506,-0.8422432899378239
1783337836773874000,11.0808740234375,2.4044337158352134,-0.038818098694086076,-0.9507166702687739
1783337836783847200,11.09084716796875,2.483620649796724,0.2396680032968521,-1.0462415755689143
1783337836793820200,11.100820068359376,2.4193619665063917,0.5977350070029497,-1.211771598856896
1783337836803793200,11.110793212890625,2.211978714612126,1.0131810174882412,-1.4650734291002154
1783337836813765000,11.12076513671875,1.9526713603436945,1.3942010267585516,-1.7529130503699182
1783337836823738000,11.130738037109374,1.860669952994585,1.7137538831532,-2.043822142212838
1783337836833711000,11.140711181640626,1.866531538504362,1.8414865290969609,-2.3727976375997066
1783337836843684000,11.15068408203125,1.8805187089331448,1.725067304328084,-2.812623179320991
1783337836853657000,11.160656982421875,1.9883103906102477,1.5973019251585006,-3.2460461605235933
1783337836863630000,11.170630126953125,2.1283327554151414,1.5239309839993715,-3.444510923555493
1783337836873602000,11.18060205078125,2.2622572417363522,1.4315993217825889,-3.451028927147388
1783337836883575300,11.1905751953125,2.360076687714457,1.335172499206662,-3.3164012609928846
1783337836893548000,11.200548095703125,2.367415506169945,1.2375205187499523,-3.1127310382723805
1783337836903521000,11.21052099609375,2.258718984607607,1.210340250879526,-2.825849156118929
1783337836913494000,11.220493896484374,2.111362331391871,1.2842062820792197,-2.61282716768533
1783337836923466200,11.23046630859375,1.942927672703564,1.3589806602954864,-2.5264275258660316
1783337836933439000,11.24043896484375,1.8182719499871134,1.3806056321263311,-2.3916912847705185
1783337836943412000,11.250411865234375,1.7771565341360867,1.2818120804190636,-2.1130600752204654
1783337836953385200,11.26038525390625,1.7718730407752095,0.9670289226442574,-1.8545839110791682
1783337836963358200,11.270358154296876,1.8681214380443094,0.6849900966078043,-1.7424154756225645
1783337836973330000,11.280329833984375,1.9615841501176356,0.5062281051725149,-1.5549116670660674
1783337836983303200,11.29030322265625,1.9861935445867478,0.4082587293297052,-1.2241773453131317
1783337836993276200,11.300276123046874,1.9554573378004132,0.39523850423693657,-0.683208985344693
1783337837003249200,11.310249267578126,2.054634189736843,0.4098708407014608,-0.16997567758522927
1783337837013222000,11.320221923828125,2.079725960895419,0.7603782228082419,0.2391805120408535
1783337837023194000,11.330194091796875,2.1318372564047574,1.5691262165099382,1.0412306886043399
1783337837033167000,11.3401669921875,1.9059370816975831,2.173037281799316,1.560080301875621
1783337837043140000,11.35014013671875,1.1904782701332122,2.6208061837404966,1.962139153651893
1783337837053113000,11.360113037109375,0.292429287147522,2.8752789574593303,2.52887316545248
1783337837063086000,11.370086181640625,-0.6505079812914133,2.798743414789438,3.1722160774201154
1783337837073058000,11.38005810546875,-1.4607903449535369,2.6214889053076504,3.7549808943063017
1783337837083031300,11.39003125,-2.2782442076802254,2.419787352311611,3.9218420200675723
1783337837093004000,11.400004150390625,-3.253918793594837,2.2133640314906833,3.9125671189829703
1783337837102977000,11.40997705078125,-4.469562996101379,1.882365651974082,3.6552728581026193
1783337837112950000,11.419949951171875,-5.227829341322184,1.7656033128559587,3.342325975844264
1783337837122922200,11.429922119140626,-4.826551556921005,1.2011229252010582,3.059036272963881
1783337837132895000,11.43989501953125,-3.5826714400112625,0.1864899553388357,1.7933068739481268
1783337837142868000,11.449867919921875,-0.5847522643763572,-0.5281833318710327,-0.04718684471920132
1783337837152841200,11.45984130859375,2.224096437907219,-1.0473334624588488,-2.3558505944520234
1783337837162814200,11.469814208984374,1.9999018980741499,-1.2968769630819559,-3.3523467268601057
1783337837172786000,11.479785888671875,0.8347102640844881,-1.4328788401991128,-3.165047500964999
1783337837182759200,11.48975927734375,0.5247159480214119,-1.2261264335542916,-2.0680913449421525
1783337837192732200,11.499732177734375,0.08222118709087371,-1.0822598144114017,-0.6883806158289313
1783337837202705200,11.509705078125,-0.8190589598357677,-1.0545312650084495,0.403038948854804
1783337837212678100,11.51967822265625,-1.8475170414328574,-0.9677958153635263,1.062047924248874
1783337837222650000,11.529650146484375,-2.6851930234551427,-0.8414765433490276,1.075418277953565
1783337837232623000,11.539623046875,-3.079350162196159,-0.7562228566944599,0.8079919146373867
1783337837242596000,11.54959619140625,-3.143955028575659,-0.39857904683649537,0.9921396907642483
1783337837252569000,11.559569091796876,-3.1054315289139747,-0.08898176726698875,1.4270955806225538
1783337837262542000,11.5695419921875,-3.0152655202984806,-0.35206513294279573,1.5439517355039716
1783337837272514000,11.57951416015625,-2.9161387911140917,-0.8903829053372144,1.9331667416676879
1783337837282487000,11.589487060546874,-2.7786896377980708,-1.487315948307514,2.508271399189532
1783337837292460300,11.599460205078126,-2.645288883090019,-1.8943623792380093,2.8364941765129563
1783337837302433000,11.60943310546875,-2.3225569582678376,-1.9977502729982137,3.0105721017852423
1783337837312406000,11.619406005859375,-2.2208371438503263,-2.247467961144447,3.3715286894530054
1783337837322378200,11.629378173828124,-2.1011387512803075,-2.4897873557329175,3.6505052053093907
1783337837332351200,11.639351318359376,-1.709794331872463,-2.496543844255805,3.9116982271939515
1783337837342324000,11.649323974609375,-1.2749440943457186,-2.5593326011240483,4.1147605471491815
1783337837352297000,11.659296875,-0.8586874981299042,-2.7115549606800076,3.9721775380760427
1783337837362270200,11.669270263671875,-0.48838572062030433,-2.854402758169174,3.5213153462946414
1783337837372242200,11.6792421875,-0.16679785126671193,-2.8438819486767053,3.2364857204958795
1783337837382215000,11.68921484375,0.09612345571517944,-2.442119011107087,3.2786347171783445
1783337837392188200,11.699188232421875,0.4917090198241174,-2.1712889768272636,2.7845699280083176
1783337837402161200,11.7091611328125,1.3038871341049671,-1.6829244451254606,2.159823872222006
1783337837412134100,11.719134033203124,2.2283637399628757,-0.9193851279377937,1.5835393572658298
1783337837422106000,11.729106201171875,2.931011366075277,-0.12967325861752033,0.9058280194893479
1783337837432079000,11.7390791015625,3.2436136726796625,0.5443471156865358,0.14017653245329856
1783337837442052000,11.749052001953125,3.234011147075891,1.1662322290837763,-0.9081655225262045
1783337837452025000,11.759025146484374,3.3896751715183258,1.915347884121537,-2.296888702395558
1783337837461998000,11.768998046875,3.664192369878292,2.8493238474696874,-3.862748610585928
1783337837471970000,11.778969970703125,3.623204525929689,3.695688747382164,-5.387421937385201
1783337837481943000,11.788943115234375,3.1447663449585437,3.986388434258103,-6.242857447981834
1783337837491916300,11.798916259765624,2.766006681835651,3.679660572645068,-6.093586923968791
1783337837501889000,11.808888916015626,2.558176416826248,2.8776123688429593,-5.29553568084836
1783337837511862000,11.818862060546875,1.900004769039154,1.8315297832280397,-4.027698934289813
1783337837521834200,11.828834228515625,1.2046084292292594,0.9194622848272324,-2.465485565908253
1783337837531807200,11.83880712890625,0.8881961358826607,0.29390228230953214,-1.4090347310140727
1783337837541780000,11.848780029296876,0.9512497542321682,0.019752748218178746,-1.1508557962536812
1783337837551753000,11.8587529296875,1.1848948439776896,0.14930501080453396,-1.5498033841416239
1783337837561726200,11.868726318359375,1.2022808630645274,0.7718073793172836,-1.5124392836481333
1783337837571698200,11.8786982421875,0.2780453359534964,1.7479793933600187,-1.0163786444857716
1783337837581671000,11.8886708984375,-1.0839864920735358,2.7915473658055063,-0.39935646094977856
1783337837591644200,11.89864404296875,-1.7186872479021549,3.729437287726998,-0.07773293576091528
1783337837601617200,11.9086171875,-1.9311913499414919,4.6221682174950836,-0.09849120775982736
1783337837611590100,11.918590087890625,-2.2517980993032456,4.817688451507688,-0.11477642599791288
1783337837621562000,11.92856201171875,-2.8046038312554358,3.894280059403181,0.28212343557998537
1783337837631535000,11.93853515625,-3.2057471756219864,2.096730871710181,1.0116215130865573
1783337837641508000,11.948508056640625,-3.4033144052922726,0.10544131915867327,2.274012853720784
1783337837651481000,11.958481201171875,-3.26956059936285,-1.4937696544915438,3.6581571813672777
1783337837661455000,11.968455078125,-2.9416683691680428,-2.548508424770832,4.8034021520018575
1783337837671427000,11.978427001953126,-2.619406253814697,-3.30794264472723,5.492441816261411
1783337837681400000,11.988400146484375,-2.3906010053157805,-3.7862352797478436,5.630208949485421
1783337837691373000,11.998373046875,-2.0078572409927844,-3.89558763487041,5.537580934670567
1783337837701346000,12.008345947265624,-1.471307062792778,-3.7542467348128556,5.189166140928864
1783337837711319300,12.0183193359375,-1.0722317568719386,-3.614180092474818,4.535698140788078
1783337837721291000,12.028291015625,-0.7152087092608213,-3.2269127132475375,4.036932626581192
1783337837731264000,12.038263916015625,-0.4988958625882864,-2.0697417424976825,3.7206221131086346
1783337837741237200,12.0482373046875,-0.6525210746794938,-0.34828269179463384,3.511970302583277
1783337837751210200,12.058210205078124,-1.05048345092237,1.1689496713489294,3.052116118311882
1783337837761183000,12.068182861328125,-1.578015040886402,2.1963456766724585,2.290385457981378
1783337837771155200,12.0781552734375,-1.8501532351553438,2.4402830278515815,1.7038224178560077
1783337837781128200,12.088128173828125,-2.002704680535197,2.0219827969789503,1.471335119843483
1783337837791101000,12.098100830078126,-2.0909131253421305,1.182225332507491,1.3494839331537485
1783337837801074000,12.108073974609376,-2.129775647699833,0.34604631104469297,1.1729004548013209
1783337837811047200,12.118047119140625,-2.1244781258136034,-0.29709494087100025,0.8335223694741726
1783337837821019100,12.12801904296875,-1.964233787843585,-0.5995955401778221,0.46590617778673765
1783337837830992000,12.137991943359374,-1.6508651730418205,-0.5935352172255516,0.22146752602197228
1783337837840965000,12.147965087890626,-1.2110760908734053,-0.671090750592947,-0.6715322107501328
1783337837850938000,12.157938232421875,-0.676443217536807,-0.8828338051319122,-1.529983708167076
1783337837860911000,12.1679111328125,-0.11875270921774207,-1.1089134280592203,-2.3023137961842117
1783337837870883000,12.177883056640624,0.4086520394962281,-1.1486094786316157,-2.971309181933105
1783337837880856000,12.18785595703125,0.7796275515489279,-1.0048790530890226,-3.3158959418192504
1783337837890829000,12.1978291015625,0.9471113392531871,-0.6843506296604871,-3.345485024397075
1783337837900802000,12.207802001953125,1.0215478638172149,-0.47368309539854525,-3.182019094032049
1783337837910775300,12.217775390625,1.057240597032383,-0.5242921696513891,-2.976795504389703
1783337837920747000,12.2277470703125,1.0720143147289751,-0.706122901007533,-2.81371535847187
1783337837930720000,12.237719970703125,0.9516589926201849,-0.8113853564679622,-2.568389767804742
1783337837940693200,12.247693359375,0.7174858604125678,-0.7885434100627898,-2.2399624078199265
1783337837950666200,12.257666259765625,0.33345658632367847,-0.752559658011794,-2.049605840180814
1783337837960638000,12.267637939453126,0.03638984863385558,-0.7578262002378702,-2.1243815335713325
1783337837970611200,12.277611083984375,-0.11369527969770132,-0.7379688226014375,-2.037844967499375
1783337837980584200,12.287584228515625,-0.2960608485829085,-0.640758156171441,-1.7123410937458277
1783337837990557200,12.29755712890625,-0.46793432261347767,-0.5533668729662895,-1.3318459851324558
1783337838000530000,12.307530029296874,-0.4951040690898895,-0.5185130017280578,-0.9846521114878356
1783337838010502100,12.317502197265625,-0.3604752338916063,-0.401688703289628,-0.688428327428177
1783337838020475100,12.32747509765625,-0.11950140869319438,-0.2172948434472084,-0.43176761521101
1783337838030448000,12.3374482421875,0.26424554132297634,-0.0964390975356102,-0.2455669982075691
1783337838040421000,12.347421142578124,0.6551818183213473,-0.02171732628941536,-0.14229326887894422
1783337838050394000,12.35739404296875,1.0306886171281338,-0.0008925649255514145,-0.08849033048823475
1783337838060366000,12.367365966796875,1.3830313979685305,-0.01623217287659645,-0.11900770689211786
1783337838070339300,12.37733935546875,1.6806858724184333,-0.0766191293001175,-0.22517036259528247
1783337838080312000,12.38731201171875,1.8802713100433348,-0.18964345093369483,-0.3491757316442206
1783337838090285000,12.39728515625,1.9532120430916546,-0.3068663933008909,-0.5126366570405662
1783337838100258000,12.407258056640625,1.9380185656130313,-0.3497410739094019,-0.7355151458390057
1783337838110230300,12.417230224609375,1.871484046345204,-0.31231998253166676,-0.99847283930853
1783337838120203000,12.427203125,1.7340215951561926,-0.18146832778453825,-1.2859092866048216
1783337838130176000,12.437176025390626,1.502794818598777,0.061244450035691254,-1.6006798771589994
1783337838140149000,12.44714892578125,1.2582146394714713,0.4459750042617321,-1.950766403505206
1783337838150122200,12.457122314453125,1.1169111488148569,0.919835794314742,-2.357893936847895
1783337838160094000,12.467093994140624,1.0671280039921403,1.2615472910255192,-2.8350504074454306
1783337838170067000,12.47706689453125,1.0300859750598668,1.4306447975367307,-3.2824265106767414
1783337838180040200,12.487040283203125,1.113513030809164,1.4835335071593523,-3.5871146831557152
1783337838190013200,12.49701318359375,1.313179424715787,1.476055134102702,-3.6942826799765225
1783337838199985200,12.506985107421874,1.5260283946700393,1.5027759677678345,-3.66028864043802
1783337838209958100,12.516958251953126,1.7516016755104065,1.605572325375676,-3.4961426188543436
1783337838219931100,12.52693115234375,1.8908821359068153,1.7412743427634239,-3.295594035285711
1783337838229904100,12.536904052734375,1.903959205753356,1.933266987171769,-2.9684561305895447
1783337838239876900,12.546876953125,1.8174933668300508,2.0668547888845206,-2.5292715171203017
1783337838249849000,12.55684912109375,1.8293325654447077,2.1093074446886777,-2.278456242995709
1783337838259822000,12.566822021484375,1.9466415786601603,2.0738801574766637,-2.248492628017068
1783337838269795000,12.576795166015625,1.9962118113845586,1.9576170000523327,-2.367874501983821
1783337838279768000,12.58676806640625,2.0419655545607207,1.8263614406794308,-2.5504279946565624
1783337838289741000,12.596740966796874,2.161568377801776,1.609466410204768,-2.7293133202105757
1783337838299713000,12.606713134765625,2.311549680432677,1.4000345552176237,-2.7854320977956055
1783337838309686300,12.616686279296875,2.4620079529255627,1.1571774004906414,-2.7798168882623315
