time,seconds_elapsed,z,y,x
1783337825755141000,0.06214111328125,-0.825408935546875,-0.4703826904296875,-0.1386871337890625
1783337825765114000,0.072114013671875,-0.82965087890625,-0.466705322265625,-0.12335205078125
1783337825775087000,0.082087158203125,-0.8302001953125,-0.46099853515625,-0.09228515625
1783337825785060000,0.09206005859375,-0.8335113525390625,-0.4545440673828125,-0.0725250244140625
1783337825795032000,0.102031982421875,-0.8596954345703125,-0.463897705078125,-0.035614013671875
1783337825805005000,0.112005126953125,-0.8772430419921875,-0.473175048828125,-0.0107879638671875
1783337825814978000,0.12197802734375,-0.889404296875,-0.45745849609375,0.0016021728515625
1783337825824951300,0.131951416015625,-0.9100341796875,-0.43115234375,0.0176544189453125
1783337825834924000,0.141924072265625,-0.9141998291015625,-0.3919830322265625,0.028106689453125
1783337825844896000,0.15189599609375,-0.905426025390625,-0.3590850830078125,0.0619354248046875
1783337825854869200,0.161869140625,-0.9158782958984375,-0.3374786376953125,0.08642578125
1783337825864842200,0.17184228515625,-0.92364501953125,-0.3354339599609375,0.1045074462890625
1783337825874815000,0.18181494140625,-0.9316253662109375,-0.336334228515625,0.119964599609375
1783337825884787200,0.191787109375,-0.9398345947265625,-0.3314361572265625,0.125091552734375
1783337825894760200,0.20176025390625,-0.97900390625,-0.34576416015625,0.1679229736328125
1783337825904733200,0.211733154296875,-1.009368896484375,-0.3599395751953125,0.2115478515625
1783337825914706000,0.221705810546875,-1.020660400390625,-0.3526153564453125,0.23162841796875
1783337825924679200,0.23167919921875,-1.022674560546875,-0.3137359619140625,0.239501953125
1783337825934651100,0.241651123046875,-1.0133819580078125,-0.2623138427734375,0.2459869384765625
1783337825944624000,0.2516240234375,-0.9978179931640625,-0.223297119140625,0.24932861328125
1783337825954597000,0.26159716796875,-0.98193359375,-0.2074127197265625,0.2487945556640625
1783337825964570000,0.271570068359375,-0.970947265625,-0.2223663330078125,0.236602783203125
1783337825974542000,0.2815419921875,-0.9489288330078125,-0.265716552734375,0.2145538330078125
1783337825984515000,0.29151513671875,-0.927520751953125,-0.3170623779296875,0.1907958984375
1783337825994488000,0.301488037109375,-0.9122467041015625,-0.35552978515625,0.1670379638671875
1783337826004461000,0.3114609375,-0.9166259765625,-0.3811798095703125,0.141815185546875
1783337826014433000,0.32143310546875,-0.9190673828125,-0.3837127685546875,0.124847412109375
1783337826024406300,0.33140625,-0.9241180419921875,-0.336669921875,0.1258544921875
1783337826034379000,0.34137890625,-0.9258270263671875,-0.2787017822265625,0.1377716064453125
1783337826044352000,0.35135205078125,-0.90966796875,-0.2781219482421875,0.1336822509765625
1783337826054325000,0.361324951171875,-0.86541748046875,-0.3086090087890625,0.108673095703125
1783337826064297200,0.371297119140625,-0.807647705078125,-0.306365966796875,0.087005615234375
1783337826074270000,0.38127001953125,-0.7699127197265625,-0.3046112060546875,0.060455322265625
1783337826084243000,0.391242919921875,-0.7534942626953125,-0.3083648681640625,0.036773681640625
1783337826094216200,0.40121630859375,-0.788787841796875,-0.308563232421875,0.042724609375
1783337826104189200,0.411189208984375,-0.8249053955078125,-0.28851318359375,0.0572357177734375
1783337826114161000,0.421160888671875,-0.806549072265625,-0.268951416015625,0.0286865234375
1783337826124134100,0.431134033203125,-0.7554473876953125,-0.2737884521484375,-0.0291900634765625
1783337826134107100,0.441107177734375,-0.73565673828125,-0.3168487548828125,-0.0963287353515625
1783337826144080100,0.451080078125,-0.707916259765625,-0.3476715087890625,-0.167816162109375
1783337826154053000,0.46105322265625,-0.67645263671875,-0.3623504638671875,-0.234344482421875
1783337826164025000,0.471025146484375,-0.645782470703125,-0.3658447265625,-0.2703857421875
1783337826173998000,0.480998046875,-0.6072540283203125,-0.3629150390625,-0.2573089599609375
1783337826183971000,0.49097119140625,-0.5687255859375,-0.3591461181640625,-0.2292938232421875
1783337826193944300,0.5009443359375,-0.55267333984375,-0.3602294921875,-0.2104949951171875
1783337826203916000,0.510916015625,-0.5569000244140625,-0.3620147705078125,-0.1981201171875
1783337826213889000,0.520888916015625,-0.5848541259765625,-0.3633575439453125,-0.1948394775390625
1783337826223862300,0.5308623046875,-0.6169281005859375,-0.3736724853515625,-0.1889495849609375
1783337826233835000,0.5408349609375,-0.6000213623046875,-0.3481292724609375,-0.222320556640625
1783337826243808000,0.55080810546875,-0.548736572265625,-0.3320770263671875,-0.242523193359375
1783337826253780200,0.5607802734375,-0.5330657958984375,-0.31268310546875,-0.2431182861328125
1783337826263753200,0.570753173828125,-0.5610809326171875,-0.2814483642578125,-0.2507171630859375
1783337826273726000,0.580725830078125,-0.5938262939453125,-0.2359619140625,-0.2705535888671875
1783337826283699000,0.590698974609375,-0.62152099609375,-0.1901702880859375,-0.2616424560546875
1783337826293672200,0.600672119140625,-0.6217041015625,-0.142578125,-0.2360687255859375
1783337826303644200,0.61064404296875,-0.5948028564453125,-0.0933990478515625,-0.184906005859375
1783337826313617000,0.620616943359375,-0.550811767578125,-0.0262451171875,-0.1205902099609375
1783337826323590100,0.630590087890625,-0.501861572265625,0.012054443359375,-0.0833740234375
1783337826333563100,0.640563232421875,-0.48016357421875,0.004119873046875,-0.1269989013671875
1783337826343535000,0.65053515625,-0.4698486328125,-0.012542724609375,-0.2233428955078125
1783337826353508000,0.660508056640625,-0.4550323486328125,-0.01312255859375,-0.305328369140625
1783337826363481000,0.670481201171875,-0.4413299560546875,0.0111846923828125,-0.3387603759765625
1783337826373454000,0.6804541015625,-0.400848388671875,0.044097900390625,-0.3827972412109375
1783337826383427000,0.690427001953125,-0.38214111328125,0.0608062744140625,-0.478424072265625
1783337826393399000,0.70039892578125,-0.4161376953125,0.0438690185546875,-0.5930328369140625
1783337826403372000,0.7103720703125,-0.450531005859375,0.0426483154296875,-0.6781768798828125
1783337826413345000,0.720344970703125,-0.4673004150390625,0.09710693359375,-0.693572998046875
1783337826423318300,0.730318359375,-0.49560546875,0.1834869384765625,-0.6853179931640625
1783337826433291300,0.740291259765625,-0.5377044677734375,0.2733306884765625,-0.6978912353515625
1783337826443263000,0.750262939453125,-0.570159912109375,0.350311279296875,-0.7140960693359375
1783337826453236200,0.760236328125,-0.6214599609375,0.3925628662109375,-0.83428955078125
1783337826463209200,0.770209228515625,-0.636962890625,0.3968963623046875,-0.953582763671875
1783337826473182200,0.78018212890625,-0.65020751953125,0.394287109375,-1.131622314453125
1783337826483155000,0.790155029296875,-0.636505126953125,0.361907958984375,-1.2810211181640625
1783337826493127200,0.800127197265625,-0.6315460205078125,0.3140869140625,-1.3545074462890625
1783337826503100200,0.81010009765625,-0.6512451171875,0.3072967529296875,-1.426605224609375
1783337826513073200,0.8200732421875,-0.6553955078125,0.3040771484375,-1.5083465576171875
1783337826523046100,0.830046142578125,-0.622406005859375,0.269317626953125,-1.642974853515625
1783337826533019100,0.84001904296875,-0.4893798828125,0.2175750732421875,-1.7666168212890625
1783337826542991000,0.8499912109375,-0.33514404296875,0.1658477783203125,-1.7600860595703125
1783337826552964000,0.859964111328125,-0.25274658203125,0.1628265380859375,-1.6826324462890625
1783337826562937000,0.86993701171875,-0.2148895263671875,0.198089599609375,-1.597412109375
1783337826572910000,0.87991015625,-0.191070556640625,0.231842041015625,-1.5068359375
1783337826582883000,0.889883056640625,-0.1824798583984375,0.2926483154296875,-1.4158477783203125
1783337826592855300,0.899855224609375,-0.1866912841796875,0.3299407958984375,-1.389404296875
1783337826602828000,0.909828125,-0.1558685302734375,0.29144287109375,-1.4435577392578125
1783337826612801000,0.919801025390625,-0.10772705078125,0.276397705078125,-1.480499267578125
1783337826622774000,0.92977392578125,-0.04449462890625,0.32952880859375,-1.5369110107421875
1783337826632747300,0.939747314453125,-0.02032470703125,0.3134765625,-1.5529937744140625
1783337826642719500,0.949719482421875,-0.0033721923828125,0.2806549072265625,-1.5410003662109375
1783337826652692200,0.959692138671875,0.0584564208984375,0.237823486328125,-1.520782470703125
1783337826662665500,0.96966552734375,0.1578521728515625,0.2111053466796875,-1.466278076171875
1783337826672638500,0.979638427734375,0.2238922119140625,0.2170562744140625,-1.399139404296875
1783337826682611500,0.989611572265625,0.2402496337890625,0.221038818359375,-1.3390045166015625
1783337826692583400,0.99958349609375,0.20428466796875,0.21795654296875,-1.313751220703125
1783337826702556400,1.009556396484375,0.16265869140625,0.2041473388671875,-1.3181610107421875
1783337826712529400,1.019529296875,0.135101318359375,0.2010650634765625,-1.3604278564453125
1783337826722502400,1.02950244140625,0.1213836669921875,0.172210693359375,-1.4102020263671875
1783337826732475400,1.039475341796875,0.12310791015625,0.16741943359375,-1.3912200927734375
1783337826742447400,1.049447265625,0.0975341796875,0.177886962890625,-1.352569580078125
1783337826752420400,1.05942041015625,0.11651611328125,0.167083740234375,-1.3925628662109375
1783337826762393600,1.0693935546875,0.221954345703125,0.1063690185546875,-1.4443511962890625
1783337826772366300,1.079366455078125,0.328033447265625,0.0354766845703125,-1.42816162109375
1783337826782339300,1.08933935546875,0.44525146484375,0.0706024169921875,-1.46221923828125
1783337826792311600,1.0993115234375,0.55804443359375,0.0653839111328125,-1.4446563720703125
1783337826802284500,1.109284423828125,0.61688232421875,0.0748291015625,-1.3804473876953125
1783337826812257300,1.11925732421875,0.657440185546875,0.1616363525390625,-1.3218841552734375
1783337826822230300,1.129230224609375,0.614410400390625,0.213134765625,-1.249755859375
1783337826832203300,1.139203369140625,0.46978759765625,0.2393798828125,-1.1653594970703125
1783337826842175500,1.149175537109375,0.301666259765625,0.2962493896484375,-1.088897705078125
1783337826852148200,1.159148193359375,0.121795654296875,0.3185272216796875,-0.9753875732421875
1783337826862121200,1.169121337890625,-0.03802490234375,0.300933837890625,-0.887176513671875
1783337826872094500,1.179094482421875,-0.2089691162109375,0.4219970703125,-0.5963897705078125
1783337826882067500,1.1890673828125,-0.1971435546875,0.5753936767578125,-0.2480621337890625
1783337826892039400,1.199039306640625,-0.028778076171875,0.66937255859375,-0.0256500244140625
1783337826902012400,1.209012451171875,0.060089111328125,0.7097015380859375,-0.060455322265625
1783337826911985400,1.2189853515625,0.1964569091796875,0.768585205078125,-0.087799072265625
1783337826921958400,1.22895849609375,0.38055419921875,0.73577880859375,-0.1728515625
1783337826931931400,1.238931396484375,0.573760986328125,0.5084228515625,-0.513092041015625
1783337826941904400,1.248904296875,0.4869384765625,0.5828704833984375,-0.6128692626953125
1783337826951876400,1.25887646484375,0.0762481689453125,0.7494049072265625,-0.5951995849609375
1783337826961849300,1.268849365234375,-0.1727294921875,0.879486083984375,-0.5146331787109375
1783337826971822600,1.278822509765625,-0.201904296875,0.995758056640625,-0.403106689453125
1783337826981795300,1.28879541015625,-0.172149658203125,1.06219482421875,-0.3602142333984375
1783337826991768300,1.298768310546875,-0.041717529296875,1.056732177734375,-0.361663818359375
1783337827001740500,1.308740478515625,0.1899566650390625,1.028839111328125,-0.35638427734375
1783337827011713500,1.318713623046875,0.42138671875,0.971343994140625,-0.34478759765625
1783337827021686300,1.328686279296875,0.550048828125,0.9144744873046875,-0.3230133056640625
1783337827031659300,1.3386591796875,0.5695343017578125,0.86834716796875,-0.394287109375
1783337827041632500,1.348632568359375,0.5465087890625,0.8043365478515625,-0.553314208984375
1783337827051604200,1.358604248046875,0.511260986328125,0.7001495361328125,-0.8385772705078125
1783337827061577200,1.3685771484375,0.4730072021484375,0.56829833984375,-1.170013427734375
1783337827071550500,1.378550537109375,0.4029388427734375,0.491668701171875,-1.454437255859375
1783337827081523500,1.3885234375,0.263214111328125,0.403106689453125,-1.60504150390625
1783337827091496400,1.398496337890625,0.2154388427734375,0.317657470703125,-1.710601806640625
1783337827101469200,1.40846923828125,0.239044189453125,0.2361297607421875,-1.79876708984375
1783337827111441400,1.41844140625,0.179473876953125,0.1209869384765625,-1.80902099609375
1783337827121414400,1.428414306640625,0.1007080078125,0.04620361328125,-1.4747314453125
1783337827131387400,1.438387451171875,0.1309356689453125,0.1055755615234375,-1.3880157470703125
1783337827141360400,1.4483603515625,0.18743896484375,0.2470855712890625,-1.3593597412109375
1783337827151333400,1.45833349609375,0.172027587890625,0.410369873046875,-1.19232177734375
1783337827161305300,1.468305419921875,0.0946197509765625,0.434234619140625,-1.016510009765625
1783337827171278600,1.478278564453125,0.0534820556640625,0.326202392578125,-0.924041748046875
1783337827181251300,1.488251220703125,0.0897674560546875,0.2617645263671875,-0.8315582275390625
1783337827191224300,1.498224365234375,0.1362762451171875,0.3490447998046875,-0.6942596435546875
1783337827201197300,1.508197265625,0.1102294921875,0.37451171875,-0.615234375
1783337827211170600,1.518170654296875,0.11883544921875,0.345794677734375,-0.5708160400390625
1783337827221142300,1.528142333984375,0.2164306640625,0.3563079833984375,-0.55609130859375
1783337827231115300,1.538115234375,0.2238006591796875,0.4019775390625,-0.5787811279296875
1783337827241088500,1.548088623046875,0.20794677734375,0.4746246337890625,-0.60650634765625
1783337827251061500,1.5580615234375,0.2170867919921875,0.5591583251953125,-0.573944091796875
1783337827261034500,1.568034423828125,0.2314605712890625,0.654052734375,-0.444427490234375
1783337827271006500,1.57800634765625,0.2580413818359375,0.7404937744140625,-0.23583984375
1783337827280979500,1.5879794921875,0.250701904296875,0.8793792724609375,-0.0524444580078125
1783337827290952400,1.597952392578125,0.29974365234375,1.008026123046875,0.0436553955078125
1783337827300925400,1.607925537109375,0.2329254150390625,0.8897705078125,-0.08087158203125
1783337827310898200,1.617898193359375,0.18194580078125,0.8027496337890625,-0.1948699951171875
1783337827320871400,1.627871337890625,0.192413330078125,0.7147979736328125,-0.231201171875
1783337827330843400,1.637843505859375,0.2050018310546875,0.65887451171875,-0.2771759033203125
1783337827340816400,1.64781640625,0.16082763671875,0.696044921875,-0.3183441162109375
1783337827350789400,1.657789306640625,0.0940093994140625,0.7799835205078125,-0.401641845703125
1783337827360762400,1.667762451171875,0.0947113037109375,0.8835296630859375,-0.4833526611328125
1783337827370735400,1.6777353515625,0.2230377197265625,0.9276580810546875,-0.5870208740234375
1783337827380707600,1.68770751953125,0.3902130126953125,0.913543701171875,-0.7065887451171875
1783337827390680300,1.697680419921875,0.4824371337890625,0.876983642578125,-0.7510833740234375
1783337827400653300,1.7076533203125,0.4968109130859375,0.8386077880859375,-0.6670379638671875
1783337827410626300,1.717626220703125,0.4834136962890625,0.7974853515625,-0.6413421630859375
1783337827420599600,1.727599609375,0.389739990234375,0.79925537109375,-0.670196533203125
1783337827430571300,1.7375712890625,0.285400390625,0.8349761962890625,-0.69354248046875
1783337827440544300,1.747544189453125,0.2062835693359375,0.8720703125,-0.711181640625
1783337827450517500,1.757517578125,0.1432037353515625,0.9012603759765625,-0.71649169921875
1783337827460490500,1.767490478515625,0.1385650634765625,0.9326324462890625,-0.70037841796875
1783337827470463200,1.777463134765625,0.17449951171875,0.9446258544921875,-0.6432342529296875
1783337827480436200,1.787436279296875,0.2017669677734375,0.9644927978515625,-0.5383453369140625
1783337827490408400,1.797408447265625,0.217041015625,1.0171966552734375,-0.4492034912109375
1783337827500381400,1.80738134765625,0.2385406494140625,1.0550537109375,-0.3566131591796875
1783337827510354200,1.817354248046875,0.245849609375,1.0671539306640625,-0.2787322998046875
1783337827520327400,1.827327392578125,0.24609375,1.08551025390625,-0.237152099609375
1783337827530300400,1.837300537109375,0.27606201171875,1.1008758544921875,-0.2436370849609375
1783337827540273400,1.8472734375,0.30322265625,1.1104736328125,-0.26043701171875
1783337827550245400,1.857245361328125,0.31683349609375,1.104736328125,-0.27471923828125
1783337827560218400,1.86721826171875,0.3231353759765625,1.1048736572265625,-0.2937774658203125
1783337827570191400,1.87719140625,0.33642578125,1.105743408203125,-0.3109893798828125
1783337827580164400,1.887164306640625,0.33233642578125,1.098297119140625,-0.3319244384765625
1783337827590137600,1.8971376953125,0.3051605224609375,1.0652008056640625,-0.3502960205078125
1783337827600110300,1.9071103515625,0.2874603271484375,1.0107269287109375,-0.338714599609375
1783337827610082300,1.917082275390625,0.2804107666015625,0.8961944580078125,-0.300506591796875
1783337827620055600,1.9270556640625,0.281646728515625,0.8422088623046875,-0.279144287109375
1783337827630028500,1.937028564453125,0.2884979248046875,0.8337554931640625,-0.2888031005859375
1783337827640001300,1.947001220703125,0.303009033203125,0.840606689453125,-0.3072967529296875
1783337827649974500,1.956974609375,0.321380615234375,0.8572998046875,-0.3228759765625
1783337827659947500,1.966947509765625,0.34136962890625,0.884979248046875,-0.3374786376953125
1783337827669919500,1.97691943359375,0.353485107421875,0.9129180908203125,-0.371337890625
1783337827679892500,1.986892578125,0.363800048828125,0.9267578125,-0.4288177490234375
1783337827689865500,1.996865478515625,0.383453369140625,0.9251251220703125,-0.4985198974609375
1783337827699838500,2.00683837890625,0.407135009765625,0.92926025390625,-0.5708465576171875
1783337827709811500,2.0168115234375,0.41021728515625,0.9354400634765625,-0.6005401611328125
1783337827719783400,2.026783447265625,0.372406005859375,0.92413330078125,-0.59576416015625
1783337827729756400,2.03675634765625,0.3410797119140625,0.97503662109375,-0.6137847900390625
1783337827739729400,2.0467294921875,0.295013427734375,1.000274658203125,-0.5958251953125
1783337827749702400,2.056702392578125,0.261138916015625,0.994873046875,-0.5546112060546875
1783337827759675400,2.06667529296875,0.25665283203125,0.9530792236328125,-0.4825439453125
1783337827769648600,2.076648681640625,0.2456512451171875,0.8817596435546875,-0.44805908203125
1783337827779620400,2.086620361328125,0.222930908203125,0.712982177734375,-0.4643402099609375
1783337827789593300,2.09659326171875,0.154937744140625,0.5689849853515625,-0.4311065673828125
1783337827799566600,2.106566650390625,0.0666046142578125,0.72918701171875,-0.35711669921875
1783337827809539600,2.11653955078125,-0.0179901123046875,0.8943634033203125,-0.1839752197265625
1783337827819512300,2.12651220703125,-0.086395263671875,1.1741180419921875,-0.1103515625
1783337827829485300,2.1364853515625,-0.1338958740234375,1.1361541748046875,-0.20098876953125
1783337827839457500,2.14645751953125,-0.1315155029296875,1.0240020751953125,-0.250946044921875
1783337827849430500,2.156430419921875,-0.0962066650390625,0.9230804443359375,-0.2339630126953125
1783337827859403300,2.1664033203125,-0.0631256103515625,0.834075927734375,-0.178497314453125
1783337827869376500,2.17637646484375,-0.037384033203125,0.751007080078125,-0.130645751953125
1783337827879349500,2.186349609375,-0.018798828125,0.66937255859375,-0.0924072265625
1783337827889322500,2.196322509765625,0.0063018798828125,0.6294097900390625,-0.08489990234375
1783337827899294500,2.20629443359375,-0.0042877197265625,0.6511077880859375,-0.0984039306640625
1783337827909267500,2.216267333984375,-0.05816650390625,0.6577606201171875,-0.0511474609375
1783337827919240400,2.226240478515625,-0.19622802734375,0.7980194091796875,-0.04522705078125
1783337827929213400,2.23621337890625,-0.252410888671875,0.92779541015625,-0.072998046875
1783337827939186700,2.246186767578125,-0.243194580078125,1.2287445068359375,-0.0526885986328125
1783337827949159400,2.256159423828125,-0.209747314453125,1.6470184326171875,-0.0217437744140625
1783337827959131400,2.26613134765625,-0.1844024658203125,1.9248199462890625,-0.098419189453125
1783337827969104600,2.276104736328125,-0.1556396484375,1.8249969482421875,-0.196319580078125
1783337827979077600,2.28607763671875,-0.16729736328125,1.4368743896484375,-0.2255401611328125
1783337827989050400,2.29605029296875,-0.19439697265625,1.069610595703125,-0.12060546875
1783337827999023400,2.3060234375,-0.180389404296875,0.8818511962890625,-0.0238189697265625
1783337828008996600,2.31599658203125,-0.1458587646484375,0.824249267578125,0.0146636962890625
1783337828018968600,2.325968505859375,-0.129180908203125,0.843902587890625,0.01812744140625
1783337828028941300,2.33594140625,-0.1266632080078125,0.907806396484375,0.0134429931640625
1783337828038914600,2.34591455078125,-0.1300811767578125,0.9562530517578125,0.0311737060546875
1783337828048887600,2.355887451171875,-0.1286773681640625,0.976959228515625,0.05584716796875
1783337828058860500,2.365860595703125,-0.1246337890625,0.9950408935546875,0.042388916015625
1783337828068833500,2.37583349609375,-0.1359405517578125,1.004364013671875,-0.000335693359375
1783337828078805500,2.385805419921875,-0.1504364013671875,1.020477294921875,-0.0650634765625
1783337828088778500,2.395778564453125,-0.155487060546875,1.0299530029296875,-0.1103515625
1783337828098751500,2.40575146484375,-0.1126861572265625,1.0206146240234375,-0.1217803955078125
1783337828108724500,2.415724365234375,-0.052642822265625,0.9945831298828125,-0.153289794921875
1783337828118697500,2.425697509765625,-0.0108184814453125,0.97430419921875,-0.20489501953125
1783337828128670500,2.43567041015625,0.014068603515625,0.9487457275390625,-0.2493896484375
1783337828138642400,2.445642333984375,0.0210418701171875,0.9123687744140625,-0.28472900390625
1783337828148615400,2.455615478515625,0.0186767578125,0.87628173828125,-0.3090667724609375
1783337828158588400,2.46558837890625,0.006011962890625,0.8544921875,-0.3078765869140625
1783337828168561400,2.4755615234375,-0.0260467529296875,0.8528289794921875,-0.286712646484375
1783337828178534400,2.485534423828125,-0.067352294921875,0.8656158447265625,-0.2696533203125
1783337828188507600,2.495507568359375,-0.1004180908203125,0.873504638671875,-0.2648773193359375
1783337828198479400,2.505479248046875,-0.1239013671875,0.8827972412109375,-0.268096923828125
1783337828208452400,2.515452392578125,-0.14056396484375,0.8961639404296875,-0.267547607421875
1783337828218425600,2.525425537109375,-0.14678955078125,0.9150390625,-0.2644500732421875
1783337828228398600,2.535398681640625,-0.1435699462890625,0.9294891357421875,-0.2569732666015625
1783337828238371300,2.545371337890625,-0.135284423828125,0.934051513671875,-0.2471771240234375
1783337828248344300,2.55534423828125,-0.1286773681640625,0.9386138916015625,-0.233489990234375
1783337828258317600,2.565317626953125,-0.121673583984375,0.940185546875,-0.2201995849609375
1783337828268289500,2.57528955078125,-0.1119842529296875,0.9441375732421875,-0.2050018310546875
1783337828278262300,2.58526220703125,-0.101226806640625,0.954986572265625,-0.1989288330078125
1783337828288235500,2.595235595703125,-0.0900421142578125,0.9666595458984375,-0.1995849609375
1783337828298208500,2.60520849609375,-0.077423095703125,0.9780120849609375,-0.205291748046875
1783337828308181500,2.615181396484375,-0.0597076416015625,0.9860076904296875,-0.2054901123046875
1783337828318154500,2.625154541015625,-0.0396270751953125,0.9909210205078125,-0.20306396484375
1783337828328126500,2.63512646484375,-0.018310546875,0.988861083984375,-0.2020721435546875
1783337828338099500,2.645099365234375,-0.0028228759765625,0.981201171875,-0.2047882080078125
1783337828348072400,2.655072509765625,0.003753662109375,0.9747161865234375,-0.2064666748046875
1783337828358045700,2.665045654296875,0.0056610107421875,0.967437744140625,-0.2045745849609375
1783337828368018400,2.675018310546875,0.0012359619140625,0.9589385986328125,-0.2000885009765625
1783337828377991400,2.684991455078125,-0.006256103515625,0.95379638671875,-0.192535400390625
1783337828387963600,2.694963623046875,-0.018310546875,0.947235107421875,-0.190277099609375
1783337828397936600,2.7049365234375,-0.02783203125,0.94000244140625,-0.1881561279296875
1783337828407909400,2.714909423828125,-0.0358123779296875,0.9303436279296875,-0.1947479248046875
1783337828417882400,2.72488232421875,-0.0411376953125,0.9225616455078125,-0.204132080078125
1783337828427855600,2.734855712890625,-0.0453948974609375,0.9235992431640625,-0.21630859375
1783337828437828600,2.74482861328125,-0.0460357666015625,0.940582275390625,-0.229156494140625
1783337828447800300,2.75480029296875,-0.0431976318359375,0.9699249267578125,-0.2451629638671875
1783337828457773600,2.764773681640625,-0.0413818359375,1.012420654296875,-0.2628173828125
1783337828467746600,2.77474658203125,-0.0450286865234375,1.056732177734375,-0.29083251953125
1783337828477719600,2.784719482421875,-0.0586090087890625,1.0996246337890625,-0.314422607421875
1783337828487692300,2.7946923828125,-0.0854949951171875,1.1434478759765625,-0.3316650390625
1783337828497665300,2.804665283203125,-0.1012115478515625,1.176605224609375,-0.34796142578125
1783337828507637500,2.814637451171875,-0.0981597900390625,1.20709228515625,-0.3623809814453125
1783337828517610500,2.824610595703125,-0.0844268798828125,1.2232513427734375,-0.384033203125
1783337828527583500,2.83458349609375,-0.0666961669921875,1.2286224365234375,-0.395599365234375
1783337828537556500,2.844556396484375,-0.0490264892578125,1.2229766845703125,-0.4013671875
1783337828547529500,2.854529541015625,-0.0371856689453125,1.213165283203125,-0.414337158203125
1783337828557502500,2.86450244140625,-0.030242919921875,1.2083282470703125,-0.4391632080078125
1783337828567475500,2.874475341796875,-0.0200042724609375,1.2008514404296875,-0.4625091552734375
1783337828577447400,2.884447509765625,-0.007232666015625,1.172576904296875,-0.483612060546875
1783337828587420400,2.89442041015625,0.007354736328125,1.1090545654296875,-0.4930267333984375
1783337828597393400,2.904393310546875,0.026031494140625,1.0387115478515625,-0.4833984375
1783337828607366700,2.91436669921875,0.04241943359375,0.9840087890625,-0.4680633544921875
1783337828617339400,2.92433935546875,0.054840087890625,0.9535980224609375,-0.44696044921875
1783337828627312400,2.9343125,0.0687713623046875,0.9530029296875,-0.400299072265625
1783337828637284600,2.94428466796875,0.0906829833984375,0.9624481201171875,-0.3494720458984375
1783337828647257300,2.95425732421875,0.1017608642578125,1.0200653076171875,-0.2805938720703125
1783337828657230300,2.964230224609375,0.12677001953125,1.132843017578125,-0.1646575927734375
1783337828667203300,2.974203369140625,0.1112823486328125,1.2347412109375,-0.0411834716796875
1783337828677176300,2.98417626953125,0.0401153564453125,1.31268310546875,0.0750732421875
1783337828687149300,2.9941494140625,-0.0408172607421875,1.3826751708984375,0.174560546875
1783337828697122300,3.004122314453125,-0.1187591552734375,1.446380615234375,0.2435150146484375
1783337828707094500,3.014094482421875,-0.193023681640625,1.44586181640625,0.2694549560546875
1783337828717067300,3.0240673828125,-0.25213623046875,1.404754638671875,0.306365966796875
1783337828727040300,3.034040283203125,-0.3123626708984375,1.3375244140625,0.343292236328125
1783337828737013200,3.04401318359375,-0.3432769775390625,1.2370758056640625,0.33465576171875
1783337828746986500,3.053986572265625,-0.386871337890625,1.1199798583984375,0.271026611328125
1783337828756959500,3.06395947265625,-0.40606689453125,0.988128662109375,0.1563873291015625
1783337828766931200,3.07393115234375,-0.3209686279296875,0.8801422119140625,0.0539703369140625
1783337828776904400,3.083904541015625,-0.2132110595703125,0.80828857421875,-0.055816650390625
1783337828786877400,3.09387744140625,-0.0499114990234375,0.7807769775390625,-0.194427490234375
1783337828796850400,3.103850341796875,0.17169189453125,0.79388427734375,-0.3763580322265625
1783337828806823200,3.1138232421875,0.230682373046875,0.8397064208984375,-0.487701416015625
1783337828816796400,3.12379638671875,0.1837310791015625,0.877197265625,-0.490081787109375
1783337828826768400,3.133768310546875,0.0172119140625,0.8900604248046875,-0.4266815185546875
1783337828836741400,3.143741455078125,-0.1412811279296875,0.876617431640625,-0.4194793701171875
1783337828846714400,3.15371435546875,-0.226287841796875,0.8614654541015625,-0.409210205078125
1783337828856687400,3.163687255859375,-0.242340087890625,0.8606414794921875,-0.401763916015625
1783337828866660400,3.173660400390625,-0.2266082763671875,0.8776092529296875,-0.3845977783203125
1783337828876633300,3.18363330078125,-0.20404052734375,0.89361572265625,-0.358642578125
1783337828886606300,3.1936064453125,-0.20098876953125,0.893646240234375,-0.31854248046875
1783337828896578300,3.203578369140625,-0.222808837890625,0.8939971923828125,-0.2859649658203125
1783337828906551300,3.21355126953125,-0.234619140625,0.885650634765625,-0.2731170654296875
1783337828916524300,3.223524169921875,-0.2292022705078125,0.8671417236328125,-0.242401123046875
1783337828926497500,3.23349755859375,-0.22125244140625,0.8458099365234375,-0.1751556396484375
1783337828936470300,3.24347021484375,-0.1946258544921875,0.8220672607421875,-0.0975494384765625
1783337828946443300,3.253443359375,-0.14691162109375,0.8031158447265625,-0.04254150390625
1783337828956415500,3.26341552734375,-0.116302490234375,0.791473388671875,-0.007049560546875
1783337828966388500,3.273388427734375,-0.0855865478515625,0.7694091796875,0.0475921630859375
1783337828976361200,3.283361328125,-0.061798095703125,0.7464599609375,0.0863800048828125
1783337828986334200,3.293334228515625,-0.02935791015625,0.735260009765625,0.1194305419921875
1783337828996307500,3.303307373046875,0.021636962890625,0.72662353515625,0.15087890625
1783337829006280400,3.313280517578125,0.0936737060546875,0.7126922607421875,0.1485748291015625
1783337829016253200,3.323253173828125,0.166259765625,0.7128753662109375,0.140380859375
1783337829026225400,3.333225341796875,0.2360382080078125,0.7451171875,0.16412353515625
1783337829036198400,3.343198486328125,0.301025390625,0.7902679443359375,0.175628662109375
1783337829046171400,3.35317138671875,0.3724212646484375,0.83074951171875,0.149658203125
1783337829056144100,3.36314404296875,0.4157257080078125,0.88470458984375,0.1532745361328125
1783337829066117400,3.373117431640625,0.3950653076171875,0.923736572265625,0.12652587890625
1783337829076090400,3.38309033203125,0.3250579833984375,0.948455810546875,0.0519256591796875
1783337829086063400,3.3930634765625,0.242340087890625,0.9551849365234375,-0.0621490478515625
1783337829096035300,3.403035400390625,0.192840576171875,0.9714202880859375,-0.176116943359375
1783337829106008300,3.41300830078125,0.1829833984375,0.9998931884765625,-0.2886199951171875
1783337829115981300,3.422981201171875,0.22235107421875,1.027587890625,-0.4222564697265625
1783337829125954300,3.432954345703125,0.2963714599609375,1.0548095703125,-0.551025390625
1783337829135927600,3.442927490234375,0.375213623046875,1.0827178955078125,-0.6506195068359375
1783337829145900300,3.452900390625,0.4383392333984375,1.115203857421875,-0.6916351318359375
1783337829155872300,3.462872314453125,0.47601318359375,1.154876708984375,-0.67010498046875
1783337829165845500,3.472845458984375,0.4409027099609375,1.1765289306640625,-0.6481170654296875
1783337829175818500,3.482818603515625,0.3240509033203125,1.146331787109375,-0.627532958984375
1783337829185791200,3.492791259765625,0.21875,1.092041015625,-0.5433502197265625
1783337829195764200,3.50276416015625,0.1746368408203125,1.0317230224609375,-0.4660491943359375
1783337829205737500,3.512737548828125,0.1690216064453125,0.99676513671875,-0.4764251708984375
1783337829215710500,3.52271044921875,0.1696319580078125,1.0009918212890625,-0.5019378662109375
1783337829225682200,3.53268212890625,0.1611785888671875,1.0318756103515625,-0.4812469482421875
1783337829235655400,3.542655517578125,0.1166839599609375,1.0729522705078125,-0.436859130859375
1783337829245628400,3.55262841796875,0.025482177734375,1.138427734375,-0.3662567138671875
1783337829255601400,3.562601318359375,-0.072265625,1.215423583984375,-0.2896270751953125
1783337829265574400,3.572574462890625,-0.14385986328125,1.2618408203125,-0.2488250732421875
1783337829275547400,3.58254736328125,-0.1694488525390625,1.2739410400390625,-0.2291412353515625
1783337829285519400,3.592519287109375,-0.16046142578125,1.2672271728515625,-0.2141876220703125
1783337829295492400,3.602492431640625,-0.1651763916015625,1.2138519287109375,-0.17633056640625
1783337829305465300,3.61246533203125,-0.1834259033203125,1.1215972900390625,-0.116973876953125
1783337829315438300,3.622438232421875,-0.1880950927734375,1.027862548828125,-0.0420684814453125
1783337829325411300,3.632411376953125,-0.1675567626953125,0.9583282470703125,0.043365478515625
1783337829335384300,3.64238427734375,-0.1128387451171875,0.9353790283203125,0.1358795166015625
1783337829345357300,3.652357421875,-0.0365447998046875,0.9208526611328125,0.1844482421875
1783337829355329300,3.662329345703125,0.0695343017578125,0.890960693359375,0.1844635009765625
1783337829365302300,3.67230224609375,0.1522216796875,0.8500518798828125,0.1636810302734375
1783337829375275300,3.682275146484375,0.173492431640625,0.804718017578125,0.12335205078125
1783337829385248500,3.69224853515625,0.1472930908203125,0.7807769775390625,0.09393310546875
1783337829395221200,3.70222119140625,0.07769775390625,0.7845458984375,0.090728759765625
1783337829405194200,3.7121943359375,-0.001220703125,0.7995452880859375,0.0695648193359375
1783337829415167200,3.722167236328125,-0.0662841796875,0.8326568603515625,0.0237579345703125
1783337829425139500,3.732139404296875,-0.150787353515625,0.88873291015625,-0.03997802734375
1783337829435112200,3.7421123046875,-0.244171142578125,0.9503021240234375,-0.08026123046875
1783337829445085200,3.752085205078125,-0.3247833251953125,0.9793853759765625,-0.0736236572265625
1783337829455058400,3.762058349609375,-0.373321533203125,0.988739013671875,-0.0750579833984375
1783337829465031400,3.772031494140625,-0.3997344970703125,0.9886627197265625,-0.091552734375
1783337829475004400,3.78200439453125,-0.413299560546875,0.9744720458984375,-0.08770751953125
1783337829484977200,3.79197705078125,-0.4045257568359375,0.9687347412109375,-0.0722503662109375
1783337829494949400,3.801949462890625,-0.3742218017578125,0.9646148681640625,-0.066314697265625
1783337829504922400,3.81192236328125,-0.3358001708984375,0.9510955810546875,-0.081939697265625
1783337829514895400,3.821895263671875,-0.30303955078125,0.9392242431640625,-0.1012420654296875
1783337829524868400,3.831868408203125,-0.27313232421875,0.94036865234375,-0.1202850341796875
1783337829534841300,3.84184130859375,-0.2313385009765625,0.9443359375,-0.1400604248046875
1783337829544814300,3.851814453125,-0.1630096435546875,0.9583587646484375,-0.1627197265625
1783337829554786600,3.86178662109375,-0.0732879638671875,0.9716796875,-0.1957550048828125
1783337829564759300,3.87175927734375,0.01336669921875,0.96502685546875,-0.2426605224609375
1783337829574732300,3.881732177734375,0.0828704833984375,0.9470367431640625,-0.29400634765625
1783337829584705300,3.891705322265625,0.1338653564453125,0.91845703125,-0.3332061767578125
1783337829594678500,3.901678466796875,0.165435791015625,0.895751953125,-0.3489227294921875
1783337829604651500,3.911651611328125,0.1697235107421875,0.887359619140625,-0.34490966796875
1783337829614624300,3.921624267578125,0.133758544921875,0.8893890380859375,-0.34027099609375
1783337829624596500,3.931596435546875,0.058746337890625,0.891845703125,-0.3262939453125
1783337829634569500,3.941569580078125,-0.013092041015625,0.9070587158203125,-0.29718017578125
1783337829644542000,3.9515419921875,-0.071044921875,0.9211273193359375,-0.261962890625
1783337829654515000,3.961514892578125,-0.117584228515625,0.927093505859375,-0.2312469482421875
1783337829664488200,3.97148828125,-0.1536712646484375,0.9307098388671875,-0.1994171142578125
1783337829674461000,3.9814609375,-0.179046630859375,0.9308319091796875,-0.1625518798828125
1783337829684434000,3.991433837890625,-0.199737548828125,0.9312744140625,-0.122650146484375
1783337829694406100,4.00140625,-0.219940185546875,0.93109130859375,-0.0984344482421875
1783337829704379100,4.011379150390625,-0.2276611328125,0.9372711181640625,-0.0940093994140625
1783337829714351900,4.021351806640625,-0.2269439697265625,0.9471893310546875,-0.098480224609375
1783337829724324900,4.031324951171875,-0.2221832275390625,0.9632110595703125,-0.1005096435546875
1783337829734298000,4.041298095703125,-0.2043304443359375,0.9777984619140625,-0.103759765625
1783337829744271000,4.05127099609375,-0.1735992431640625,0.983642578125,-0.1215972900390625
1783337829754244000,4.061244140625,-0.1415252685546875,0.983734130859375,-0.140350341796875
1783337829764216000,4.071216064453125,-0.1099090576171875,0.9809722900390625,-0.1497955322265625
1783337829774189000,4.08118896484375,-0.07879638671875,0.9750823974609375,-0.1597900390625
1783337829784162000,4.091162109375,-0.055084228515625,0.9675750732421875,-0.166473388671875
1783337829794134800,4.101134765625,-0.035308837890625,0.9633331298828125,-0.1713714599609375
1783337829804108000,4.11110791015625,-0.0224151611328125,0.96221923828125,-0.171051025390625
1783337829814081000,4.1210810546875,-0.015869140625,0.9605560302734375,-0.1721649169921875
1783337829824053000,4.131052978515625,-0.0108184814453125,0.9644622802734375,-0.1759033203125
1783337829834026000,4.14102587890625,-0.0042724609375,0.9759063720703125,-0.1856231689453125
1783337829843999000,4.1509990234375,-0.003997802734375,0.999847412109375,-0.213958740234375
1783337829853972000,4.160971923828125,-0.007354736328125,1.0290069580078125,-0.2585906982421875
1783337829863945000,4.170945068359375,-0.0121612548828125,1.0495758056640625,-0.3055419921875
1783337829873918000,4.18091796875,-0.0156402587890625,1.0640716552734375,-0.345855712890625
1783337829883891000,4.190890869140625,-0.0218963623046875,1.0813751220703125,-0.3820343017578125
1783337829893863000,4.20086279296875,-0.030029296875,1.099700927734375,-0.41455078125
1783337829903836000,4.2108359375,-0.0379180908203125,1.11541748046875,-0.4366455078125
1783337829913809200,4.22080908203125,-0.046905517578125,1.1210784912109375,-0.4479217529296875
1783337829923782000,4.230781982421875,-0.0554656982421875,1.1179351806640625,-0.4470977783203125
1783337829933755000,4.2407548828125,-0.0660858154296875,1.115020751953125,-0.4278106689453125
1783337829943727900,4.250727783203125,-0.070831298828125,1.1138458251953125,-0.3930206298828125
1783337829953701000,4.260701171875,-0.0665283203125,1.1257171630859375,-0.3657684326171875
1783337829963672800,4.2706728515625,-0.0658111572265625,1.150604248046875,-0.351898193359375
1783337829973645800,4.280645751953125,-0.0656585693359375,1.169219970703125,-0.3563995361328125
1783337829983619000,4.290619140625,-0.06585693359375,1.1805572509765625,-0.3653564453125
1783337829993592000,4.300592041015625,-0.0660400390625,1.1771392822265625,-0.374053955078125
1783337830003565000,4.31056494140625,-0.0689239501953125,1.1633453369140625,-0.3712158203125
1783337830013537800,4.320537841796875,-0.062713623046875,1.14129638671875,-0.3501739501953125
1783337830023511000,4.330510986328125,-0.047637939453125,1.114471435546875,-0.3174591064453125
1783337830033483000,4.34048291015625,-0.0322113037109375,1.0811309814453125,-0.270538330078125
1783337830043456000,4.3504560546875,-0.020111083984375,1.0495147705078125,-0.2142333984375
1783337830053429000,4.360428955078125,-0.0126800537109375,1.020721435546875,-0.1575164794921875
1783337830063402000,4.370402099609375,-0.0181732177734375,0.9900970458984375,-0.0880584716796875
1783337830073375000,4.380375,-0.016876220703125,0.984832763671875,-0.0166778564453125
1783337830083348000,4.390347900390625,-0.0278778076171875,1.00506591796875,0.0506134033203125
1783337830093320000,4.40031982421875,0.0091094970703125,1.0458984375,0.1032562255859375
1783337830103293000,4.41029296875,0.0564727783203125,1.0929718017578125,0.135833740234375
1783337830113266000,4.420265869140625,0.065460205078125,1.13482666015625,0.170135498046875
1783337830123239200,4.4302392578125,0.0373077392578125,1.1691131591796875,0.2027435302734375
1783337830133212200,4.440212158203125,-0.01556396484375,1.173797607421875,0.224761962890625
1783337830143185000,4.450184814453125,-0.06805419921875,1.155059814453125,0.2305450439453125
1783337830153158000,4.460157958984375,-0.1176605224609375,1.1227264404296875,0.215972900390625
1783337830163130000,4.470130126953125,-0.1751556396484375,1.0789031982421875,0.1859130859375
1783337830173102800,4.480102783203125,-0.2425689697265625,1.0447845458984375,0.1401214599609375
1783337830183075800,4.490075927734375,-0.3060760498046875,1.0363922119140625,0.10205078125
1783337830193048800,4.500048828125,-0.302337646484375,1.0262451171875,0.04058837890625
1783337830203022000,4.51002197265625,-0.251953125,0.9944610595703125,-0.05096435546875
1783337830212995000,4.5199951171875,-0.1929473876953125,0.9813079833984375,-0.162200927734375
1783337830222967800,4.5299677734375,-0.0661773681640625,0.968017578125,-0.328277587890625
1783337830232940000,4.53993994140625,0.0677642822265625,0.9756622314453125,-0.477447509765625
1783337830242913000,4.5499130859375,0.1143035888671875,0.975830078125,-0.5748138427734375
1783337830252886000,4.559885986328125,0.056671142578125,0.992767333984375,-0.5409698486328125
1783337830262858800,4.569858642578125,-0.0186767578125,0.9873046875,-0.475799560546875
1783337830272832000,4.57983203125,-0.0640716552734375,0.96759033203125,-0.41302490234375
1783337830282805000,4.589804931640625,-0.0766754150390625,0.9755859375,-0.3545074462890625
1783337830292778000,4.599778076171875,-0.09149169921875,0.9842987060546875,-0.308441162109375
1783337830302750000,4.60975,-0.1285400390625,0.991241455078125,-0.2568206787109375
1783337830312723000,4.619722900390625,-0.157440185546875,0.9755401611328125,-0.2216033935546875
1783337830322696000,4.629696044921875,-0.162261962890625,0.944854736328125,-0.1849822998046875
1783337830332669000,4.6396689453125,-0.1556854248046875,0.9075469970703125,-0.136260986328125
1783337830342642200,4.64964208984375,-0.16131591796875,0.8502197265625,-0.081878662109375
1783337830352615000,4.659614990234375,-0.1655426025390625,0.78753662109375,-0.04705810546875
1783337830362587000,4.6695869140625,-0.136871337890625,0.737396240234375,-0.0069427490234375
1783337830372560100,4.67956005859375,-0.1103057861328125,0.704315185546875,0.05413818359375
1783337830382533000,4.689533203125,-0.0918731689453125,0.669219970703125,0.090301513671875
1783337830392505900,4.699505859375,-0.0827484130859375,0.630706787109375,0.101043701171875
1783337830402478800,4.709478759765625,-0.0518646240234375,0.6120452880859375,0.1260986328125
1783337830412452000,4.7194521484375,-0.00848388671875,0.6143798828125,0.1476593017578125
1783337830422425000,4.729425048828125,0.03924560546875,0.60552978515625,0.13702392578125
1783337830432396800,4.739396728515625,0.1106414794921875,0.6015472412109375,0.093963623046875
1783337830442370000,4.7493701171875,0.178314208984375,0.643585205078125,0.057647705078125
1783337830452343000,4.759343017578125,0.237762451171875,0.7145843505859375,0.0245819091796875
1783337830462316000,4.76931591796875,0.3021087646484375,0.7867431640625,-0.0309600830078125
1783337830472289000,4.7792890625,0.3924560546875,0.860443115234375,-0.1058807373046875
1783337830482262000,4.789261962890625,0.476470947265625,0.9556427001953125,-0.175445556640625
1783337830492235000,4.799235107421875,0.5079803466796875,1.0429840087890625,-0.259765625
1783337830502207000,4.80920703125,0.452911376953125,1.097076416015625,-0.365203857421875
1783337830512180000,4.819179931640625,0.3435211181640625,1.1106414794921875,-0.469482421875
1783337830522153000,4.829153076171875,0.2487640380859375,1.111907958984375,-0.55438232421875
1783337830532126000,4.8391259765625,0.2126312255859375,1.1098175048828125,-0.6126556396484375
1783337830542099000,4.849098876953125,0.243896484375,1.1045989990234375,-0.6702117919921875
1783337830552072000,4.859072021484375,0.3162078857421875,1.088165283203125,-0.723876953125
1783337830562045000,4.869044921875,0.384521484375,1.064910888671875,-0.7457275390625
1783337830572017000,4.879016845703125,0.3999786376953125,1.050048828125,-0.72235107421875
1783337830581990000,4.888989990234375,0.3415069580078125,1.0466766357421875,-0.6594390869140625
1783337830591963100,4.898963134765625,0.260528564453125,1.027587890625,-0.589202880859375
1783337830601936000,4.908935791015625,0.1752471923828125,0.9842529296875,-0.5136871337890625
1783337830611908900,4.918908935546875,0.1107025146484375,0.9447784423828125,-0.470001220703125
1783337830621881900,4.9288818359375,0.080841064453125,0.941192626953125,-0.4586029052734375
1783337830631855000,4.938855224609375,0.0802001953125,0.970550537109375,-0.4312591552734375
1783337830641826800,4.948826904296875,0.093994140625,1.0030975341796875,-0.415374755859375
1783337830651800600,4.958800537109375,0.1099395751953125,1.0399169921875,-0.4028778076171875
1783337830661773600,4.968773681640625,0.093170166015625,1.0966339111328125,-0.3645782470703125
1783337830671746800,4.978746826171875,0.0412139892578125,1.1747283935546875,-0.30487060546875
1783337830681719600,4.988719482421875,-0.02294921875,1.26220703125,-0.2564544677734375
1783337830691692500,4.998692626953125,-0.0513916015625,1.330108642578125,-0.244171142578125
1783337830701665500,5.00866552734375,-0.0434722900390625,1.358612060546875,-0.2434539794921875
1783337830711637800,5.0186376953125,-0.0494384765625,1.32122802734375,-0.2231903076171875
1783337830721610500,5.028610595703125,-0.06695556640625,1.2388763427734375,-0.1937255859375
1783337830731583500,5.03858349609375,-0.093658447265625,1.1483612060546875,-0.1221466064453125
1783337830741556700,5.048556640625,-0.1217041015625,1.052032470703125,-0.0208587646484375
1783337830751529700,5.05852978515625,-0.1373291015625,0.96661376953125,0.1046295166015625
1783337830761502700,5.068502685546875,-0.1297454833984375,0.9028472900390625,0.2151947021484375
1783337830771474700,5.078474609375,-0.1082916259765625,0.8506927490234375,0.2742767333984375
1783337830781447700,5.08844775390625,-0.0863800048828125,0.7974853515625,0.29718017578125
1783337830791420700,5.098420654296875,-0.0513916015625,0.7490692138671875,0.292144775390625
1783337830801393700,5.1083935546875,-0.013641357421875,0.720916748046875,0.274200439453125
1783337830811366700,5.11836669921875,0.002532958984375,0.7142181396484375,0.2482757568359375
1783337830821339600,5.128339599609375,-0.005096435546875,0.73260498046875,0.2136077880859375
1783337830831312600,5.138312744140625,-0.064361572265625,0.7910003662109375,0.1738433837890625
1783337830841284900,5.148284912109375,-0.16461181640625,0.8710784912109375,0.1192474365234375
1783337830851257600,5.158257568359375,-0.265045166015625,0.94970703125,0.046478271484375
1783337830861230600,5.168230712890625,-0.326080322265625,1.0037994384765625,-0.0316162109375
1783337830871203600,5.17820361328125,-0.364990234375,1.0329132080078125,-0.11181640625
1783337830881176800,5.1881767578125,-0.38092041015625,1.0323638916015625,-0.1561279296875
1783337830891149600,5.198149658203125,-0.395111083984375,1.00274658203125,-0.155487060546875
1783337830901122600,5.20812255859375,-0.41619873046875,0.9639434814453125,-0.13580322265625
1783337830911094800,5.2180947265625,-0.4088592529296875,0.943511962890625,-0.11358642578125
1783337830921067800,5.22806787109375,-0.3750152587890625,0.9448089599609375,-0.08990478515625
1783337830931040500,5.23804052734375,-0.3196563720703125,0.947021484375,-0.0981597900390625
1783337830941013500,5.248013427734375,-0.2604522705078125,0.931304931640625,-0.1390533447265625
1783337830950986500,5.257986572265625,-0.2158966064453125,0.923370361328125,-0.1709747314453125
1783337830960959700,5.267959716796875,-0.1723175048828125,0.92877197265625,-0.1884307861328125
1783337830970932700,5.2779326171875,-0.1066741943359375,0.954925537109375,-0.2068939208984375
1783337830980904700,5.28790478515625,-0.017669677734375,0.98016357421875,-0.2238006591796875
1783337830990877700,5.297877685546875,0.06060791015625,0.990447998046875,-0.2478179931640625
1783337831001474600,5.308474609375,0.136077880859375,0.9749298095703125,-0.31231689453125
1783337831011447600,5.318447509765625,0.162811279296875,0.9462890625,-0.355621337890625
1783337831021420800,5.3284208984375,0.148590087890625,0.92364501953125,-0.3466644287109375
1783337831031392500,5.338392578125,0.1114349365234375,0.9064483642578125,-0.323272705078125
1783337831041365500,5.348365478515625,0.0489959716796875,0.892669677734375,-0.3070526123046875
1783337831051338800,5.3583388671875,-0.0232696533203125,0.906005859375,-0.288055419921875
1783337831061311700,5.368311767578125,-0.10040283203125,0.9251861572265625,-0.25640869140625
1783337831071284500,5.378284423828125,-0.15625,0.935333251953125,-0.222503662109375
1783337831081257500,5.388257568359375,-0.19061279296875,0.9402618408203125,-0.2120819091796875
1783337831091230700,5.398230712890625,-0.21966552734375,0.94879150390625,-0.208465576171875
1783337831101202700,5.40820263671875,-0.2493896484375,0.945159912109375,-0.21234130859375
1783337831111175400,5.418175537109375,-0.267578125,0.938629150390625,-0.200042724609375
1783337831121148700,5.428148681640625,-0.2694091796875,0.9485015869140625,-0.1755523681640625
1783337831131121700,5.43812158203125,-0.25848388671875,0.96234130859375,-0.1577911376953125
1783337831141094700,5.4480947265625,-0.2236480712890625,0.96087646484375,-0.160064697265625
1783337831151067600,5.458067626953125,-0.1779022216796875,0.9562225341796875,-0.1645965576171875
1783337831161040600,5.46804052734375,-0.137298583984375,0.9546661376953125,-0.1658935546875
1783337831171012600,5.4780126953125,-0.098480224609375,0.9605255126953125,-0.1665802001953125
1783337831180985600,5.487985595703125,-0.0615081787109375,0.961669921875,-0.1738739013671875
1783337831190958800,5.497958740234375,-0.0237579345703125,0.9529266357421875,-0.180908203125
1783337831200931600,5.507931640625,0.0106201171875,0.9368743896484375,-0.1816864013671875
1783337831210904600,5.517904541015625,0.036041259765625,0.9278106689453125,-0.1819610595703125
1783337831220877600,5.527877685546875,0.05023193359375,0.9317626953125,-0.185943603515625
1783337831230849800,5.537849853515625,0.0521392822265625,0.9497528076171875,-0.1950531005859375
1783337831240822500,5.547822509765625,0.0402679443359375,0.9780426025390625,-0.2249603271484375
1783337831250795500,5.55779541015625,0.02191162109375,1.0112457275390625,-0.2618255615234375
1783337831260768800,5.567768798828125,0.0037994384765625,1.053924560546875,-0.2996368408203125
1783337831270741800,5.57774169921875,-0.0065155029296875,1.0987701416015625,-0.328369140625
1783337831280714800,5.58771484375,-0.02716064453125,1.1281280517578125,-0.361114501953125
1783337831290687500,5.5976875,-0.0502471923828125,1.1264190673828125,-0.392608642578125
1783337831300659700,5.60765966796875,-0.0624237060546875,1.09466552734375,-0.4037933349609375
1783337831310632700,5.6176328125,-0.0652008056640625,1.05560302734375,-0.385162353515625
1783337831320605700,5.627605712890625,-0.0685882568359375,1.038482666015625,-0.3489227294921875
1783337831330578700,5.63757861328125,-0.072052001953125,1.025634765625,-0.2992706298828125
1783337831340551700,5.6475517578125,-0.08587646484375,1.0216522216796875,-0.2443695068359375
1783337831350524700,5.657524658203125,-0.1117095947265625,1.025787353515625,-0.1891937255859375
1783337831360496600,5.66749658203125,-0.1304779052734375,1.0403289794921875,-0.1422576904296875
1783337831371092500,5.678092529296875,-0.134124755859375,1.065887451171875,-0.1233978271484375
1783337831381065700,5.688065673828125,-0.1313018798828125,1.10333251953125,-0.10943603515625
1783337831391038700,5.698038818359375,-0.1158447265625,1.1432952880859375,-0.1067657470703125
1783337831401011700,5.70801171875,-0.0878753662109375,1.1718597412109375,-0.1109619140625
1783337831410984700,5.717984619140625,-0.0509033203125,1.18597412109375,-0.116302490234375
1783337831420956700,5.727956787109375,-0.01483154296875,1.199462890625,-0.1324462890625
1783337831430929700,5.7379296875,0.0136260986328125,1.20733642578125,-0.1660919189453125
1783337831440902700,5.747902587890625,0.0317535400390625,1.189971923828125,-0.208465576171875
1783337831450875600,5.757875732421875,0.041046142578125,1.153717041015625,-0.2421417236328125
1783337831460848600,5.7678486328125,0.03729248046875,1.10455322265625,-0.255401611328125
1783337831470821600,5.777821533203125,0.026123046875,1.051849365234375,-0.260406494140625
1783337831480794600,5.787794677734375,0.015228271484375,1.00091552734375,-0.2496795654296875
1783337831490766600,5.7977666015625,-0.0006103515625,0.953033447265625,-0.2259674072265625
1783337831500739600,5.807739501953125,-0.0168609619140625,0.92266845703125,-0.18646240234375
1783337831510712600,5.817712646484375,-0.0149078369140625,0.946685791015625,-0.159423828125
1783337831520685600,5.827685546875,-0.0074310302734375,1.0218963623046875,-0.136077880859375
1783337831530658800,5.837658935546875,0.017364501953125,1.1120452880859375,-0.111846923828125
1783337831540631600,5.847631591796875,0.028839111328125,1.1868438720703125,-0.065948486328125
1783337831550604500,5.8576044921875,0.00677490234375,1.223968505859375,-0.0046539306640625
1783337831560576800,5.86757666015625,-0.0322723388671875,1.24761962890625,0.07452392578125
1783337831570549800,5.8775498046875,-0.07818603515625,1.25128173828125,0.155548095703125
1783337831580522500,5.8875224609375,-0.1417388916015625,1.22918701171875,0.1939697265625
1783337831590495500,5.89749560546875,-0.2375335693359375,1.1945037841796875,0.1915283203125
1783337831600468700,5.90746875,-0.306427001953125,1.1923370361328125,0.18463134765625
1783337831610441700,5.917441650390625,-0.345703125,1.169769287109375,0.1819305419921875
1783337831620414700,5.927414794921875,-0.32830810546875,1.106170654296875,0.12506103515625
1783337831630386700,5.93738671875,-0.233917236328125,1.0178070068359375,-0.0214080810546875
1783337831640359700,5.947359619140625,-0.0364837646484375,0.961761474609375,-0.2003936767578125
1783337831650332700,5.957332763671875,0.1283416748046875,0.9291534423828125,-0.345703125
1783337831660305400,5.967305419921875,0.1397857666015625,0.9000396728515625,-0.434967041015625
1783337831670278700,5.977278564453125,0.0565338134765625,0.8571624755859375,-0.46392822265625
1783337831680251600,5.987251708984375,-0.005828857421875,0.8250885009765625,-0.43646240234375
1783337831690223600,5.9972236328125,-0.0412750244140625,0.8293304443359375,-0.4026641845703125
1783337831700196600,6.007196533203125,-0.0958099365234375,0.85467529296875,-0.37579345703125
1783337831710169600,6.017169677734375,-0.1316986083984375,0.877166748046875,-0.3491058349609375
1783337831720142600,6.027142578125,-0.1485443115234375,0.891021728515625,-0.33355712890625
1783337831730115600,6.037115478515625,-0.1760406494140625,0.8967742919921875,-0.3134765625
1783337831740088600,6.047088623046875,-0.1820220947265625,0.864013671875,-0.329833984375
1783337831750061600,6.0570615234375,-0.168914794921875,0.853302001953125,-0.300994873046875
1783337831760033500,6.067033447265625,-0.167510986328125,0.8434295654296875,-0.2537078857421875
1783337831770006800,6.0770068359375,-0.17236328125,0.8165435791015625,-0.21337890625
1783337831779979800,6.086979736328125,-0.1644744873046875,0.7929229736328125,-0.158447265625
1783337831789952500,6.096952392578125,-0.1285400390625,0.7663421630859375,-0.0980072021484375
1783337831799925500,6.106925537109375,-0.1004791259765625,0.7453460693359375,-0.039794921875
1783337831809898500,6.1168984375,-0.072601318359375,0.7210693359375,-0.019317626953125
1783337831819871700,6.126871826171875,-0.042327880859375,0.6900787353515625,-0.0089874267578125
1783337831829843500,6.136843505859375,-0.0233001708984375,0.66827392578125,0.015594482421875
1783337831839816400,6.14681640625,-0.0041351318359375,0.6504058837890625,0.0239105224609375
1783337831849789700,6.156789794921875,0.028167724609375,0.6243438720703125,0.005767822265625
1783337831859762700,6.1667626953125,0.08026123046875,0.62139892578125,-0.0053558349609375
1783337831869735400,6.1767353515625,0.1343994140625,0.667144775390625,-0.0007476806640625
1783337831879708400,6.18670849609375,0.1835479736328125,0.721923828125,-0.023956298828125
1783337831889680600,6.1966806640625,0.243927001953125,0.7714996337890625,-0.082611083984375
1783337831899653600,6.206653564453125,0.3140411376953125,0.829345703125,-0.1428070068359375
1783337831909626400,6.21662646484375,0.3609161376953125,0.9110107421875,-0.1753387451171875
1783337831919599600,6.226599609375,0.3668060302734375,0.981048583984375,-0.216217041015625
1783337831929572600,6.236572509765625,0.331939697265625,1.01812744140625,-0.2934417724609375
1783337831939545600,6.246545654296875,0.283355712890625,1.0388031005859375,-0.382843017578125
1783337831949518600,6.2565185546875,0.2642974853515625,1.071044921875,-0.4600372314453125
1783337831959490600,6.266490478515625,0.28887939453125,1.118743896484375,-0.51861572265625
1783337831969463600,6.276463623046875,0.3477020263671875,1.16656494140625,-0.5717926025390625
1783337831979436500,6.2864365234375,0.4075164794921875,1.2032928466796875,-0.6154022216796875
1783337831989409800,6.296409912109375,0.44134521484375,1.2218017578125,-0.6241302490234375
1783337831999382500,6.306382568359375,0.4331207275390625,1.2023468017578125,-0.6126708984375
1783337832009355500,6.31635546875,0.3827972412109375,1.13714599609375,-0.6256256103515625
1783337832019328500,6.32632861328125,0.297576904296875,1.04754638671875,-0.6156768798828125
1783337832029300700,6.33630078125,0.1967315673828125,0.970672607421875,-0.5424041748046875
1783337832039273500,6.3462734375,0.13720703125,0.916534423828125,-0.4798736572265625
1783337832049246500,6.35624658203125,0.10687255859375,0.88299560546875,-0.4842529296875
1783337832059219700,6.3662197265625,0.0903167724609375,0.8902587890625,-0.5020599365234375
1783337832069192700,6.376192626953125,0.0815887451171875,0.929412841796875,-0.4844207763671875
1783337832079165700,6.386165771484375,0.052642822265625,0.9929046630859375,-0.4348297119140625
1783337832089137700,6.3961376953125,-0.00927734375,1.09619140625,-0.344512939453125
1783337832099110700,6.406110595703125,-0.082183837890625,1.210693359375,-0.256927490234375
1783337832109083600,6.416083740234375,-0.1154022216796875,1.3256378173828125,-0.2040252685546875
1783337832119056600,6.426056640625,-0.09967041015625,1.4138336181640625,-0.1883697509765625
1783337832129029600,6.436029541015625,-0.0897064208984375,1.43695068359375,-0.1661834716796875
1783337832139002600,6.446002685546875,-0.121063232421875,1.391845703125,-0.133819580078125
1783337832148975600,6.4559755859375,-0.1535797119140625,1.287567138671875,-0.0809478759765625
1783337832158947600,6.465947509765625,-0.1619873046875,1.1493377685546875,0.0120849609375
1783337832168920600,6.475920654296875,-0.12652587890625,0.99102783203125,0.1443023681640625
1783337832178893600,6.4858935546875,-0.0376434326171875,0.867340087890625,0.2635040283203125
1783337832188866600,6.495866455078125,0.088836669921875,0.771942138671875,0.3143463134765625
1783337832198839600,6.505839599609375,0.1782684326171875,0.697418212890625,0.2700653076171875
1783337832208812800,6.515812744140625,0.1491546630859375,0.6690673828125,0.2155609130859375
1783337832218784500,6.525784423828125,0.1191864013671875,0.6888885498046875,0.2070159912109375
1783337832228757500,6.535757568359375,0.0870361328125,0.72314453125,0.2042083740234375
1783337832238730800,6.545730712890625,0.0326080322265625,0.756500244140625,0.1501922607421875
1783337832248703500,6.555703369140625,-0.0464324951171875,0.8005523681640625,0.0522003173828125
1783337832258676500,6.565676513671875,-0.1537933349609375,0.8714752197265625,-0.04132080078125
1783337832268649500,6.5756494140625,-0.2581634521484375,0.956939697265625,-0.10040283203125
1783337832278622700,6.585622802734375,-0.344085693359375,1.0077667236328125,-0.1454620361328125
1783337832288594400,6.595594482421875,-0.4053802490234375,1.0118255615234375,-0.1768341064453125
1783337832298567400,6.6055673828125,-0.436981201171875,0.9918670654296875,-0.1810150146484375
1783337832308540700,6.615540771484375,-0.45172119140625,0.975830078125,-0.178741455078125
1783337832318513700,6.625513671875,-0.4383697509765625,0.9579620361328125,-0.1623382568359375
1783337832328486700,6.635486572265625,-0.4183197021484375,0.9218292236328125,-0.1512603759765625
1783337832338459400,6.64545947265625,-0.3898162841796875,0.894775390625,-0.1500396728515625
1783337832348431600,6.655431640625,-0.3524627685546875,0.893402099609375,-0.1500091552734375
1783337832358404600,6.665404541015625,-0.3108062744140625,0.9084625244140625,-0.1428375244140625
1783337832368377600,6.675377685546875,-0.2693023681640625,0.9376983642578125,-0.1562347412109375
1783337832378350600,6.6853505859375,-0.2357177734375,0.96527099609375,-0.191162109375
1783337832388323600,6.695323486328125,-0.187744140625,0.9903717041015625,-0.2183074951171875
1783337832398296600,6.705296630859375,-0.10284423828125,1.0133056640625,-0.22479248046875
1783337832408269600,6.71526953125,-0.0013427734375,1.0222625732421875,-0.2326812744140625
1783337832418241500,6.725241455078125,0.0903778076171875,1.01141357421875,-0.251861572265625
1783337832428214500,6.735214599609375,0.166351318359375,0.9844970703125,-0.27703857421875
1783337832438187500,6.7451875,0.22210693359375,0.9528961181640625,-0.2909393310546875
1783337832448160800,6.755160888671875,0.25262451171875,0.9243621826171875,-0.2868499755859375
1783337832458133800,6.7651337890625,0.2442779541015625,0.901275634765625,-0.28106689453125
1783337832468106500,6.7751064453125,0.1971588134765625,0.894989013671875,-0.2666168212890625
1783337832478079500,6.78507958984375,0.1247711181640625,0.9127044677734375,-0.23028564453125
1783337832488051700,6.7950517578125,0.0488739013671875,0.922332763671875,-0.19244384765625
1783337832498024700,6.805024658203125,-0.016998291015625,0.9239654541015625,-0.162384033203125
1783337832507997400,6.81499755859375,-0.070953369140625,0.9288330078125,-0.130615234375
1783337832517970700,6.824970703125,-0.12109375,0.9339141845703125,-0.1085357666015625
1783337832527943700,6.834943603515625,-0.1666717529296875,0.9363250732421875,-0.09375
1783337832537916700,6.844916748046875,-0.2031402587890625,0.936065673828125,-0.09124755859375
1783337832547888600,6.854888671875,-0.222808837890625,0.937591552734375,-0.0959014892578125
1783337832557861600,6.864861572265625,-0.22662353515625,0.9466552734375,-0.1009979248046875
1783337832567834600,6.874834716796875,-0.2213287353515625,0.962738037109375,-0.1094970703125
1783337832577807600,6.8848076171875,-0.207366943359375,0.9775848388671875,-0.1164703369140625
1783337832587780600,6.894780517578125,-0.1857452392578125,0.989593505859375,-0.121612548828125
1783337832597753600,6.904753662109375,-0.1618194580078125,0.998077392578125,-0.126556396484375
1783337832607726600,6.9147265625,-0.1348724365234375,1.0030364990234375,-0.1356353759765625
1783337832617698600,6.924698486328125,-0.106353759765625,0.9988250732421875,-0.1510162353515625
1783337832627671600,6.934671630859375,-0.0832366943359375,0.985565185546875,-0.1654510498046875
1783337832637644500,6.94464453125,-0.061859130859375,0.9742431640625,-0.1815338134765625
1783337832647618000,6.9546181640625,-0.0440216064453125,0.962066650390625,-0.2013397216796875
1783337832657591000,6.964591064453125,-0.0271148681640625,0.95965576171875,-0.218231201171875
1783337832667564000,6.97456396484375,-0.0129241943359375,0.970062255859375,-0.2344207763671875
1783337832677536000,6.984535888671875,-0.00018310546875,0.9942169189453125,-0.2522430419921875
1783337832687509000,6.994509033203125,0.000335693359375,1.0272979736328125,-0.2747802734375
1783337832697482000,7.00448193359375,-0.015655517578125,1.072052001953125,-0.30889892578125
1783337832707455000,7.014455078125,-0.0289764404296875,1.1221160888671875,-0.35589599609375
1783337832717428000,7.024427978515625,-0.0402984619140625,1.1577606201171875,-0.393585205078125
1783337832727401000,7.03440087890625,-0.05206298828125,1.1816253662109375,-0.4238128662109375
1783337832737373200,7.044373291015625,-0.0610198974609375,1.189361572265625,-0.4567413330078125
1783337832747346000,7.054345947265625,-0.0572052001953125,1.1820220947265625,-0.481903076171875
1783337832757319000,7.06431884765625,-0.04931640625,1.1696014404296875,-0.494720458984375
1783337832767292000,7.0742919921875,-0.0461273193359375,1.1559295654296875,-0.49017333984375
1783337832777265200,7.08426513671875,-0.054290771484375,1.1483917236328125,-0.48095703125
1783337832787238100,7.094238037109375,-0.06756591796875,1.140533447265625,-0.4659423828125
1783337832797211000,7.1042109375,-0.0843353271484375,1.122955322265625,-0.44512939453125
1783337832807183000,7.11418310546875,-0.0950469970703125,1.104644775390625,-0.4105987548828125
1783337832817156000,7.124156005859375,-0.095703125,1.0867919921875,-0.3596954345703125
1783337832827129000,7.134129150390625,-0.090301513671875,1.0709075927734375,-0.287567138671875
1783337832837101800,7.144101806640625,-0.0768585205078125,1.0657501220703125,-0.20220947265625
1783337832847075000,7.154074951171875,-0.0639495849609375,1.0579986572265625,-0.111572265625
1783337832857048000,7.164048095703125,-0.0643157958984375,1.046295166015625,-0.0081939697265625
1783337832867020000,7.17402001953125,-0.0636138916015625,1.0294036865234375,0.1002044677734375
1783337832876993000,7.183992919921875,-0.0048370361328125,1.030242919921875,0.1659088134765625
1783337832886966000,7.193966064453125,0.0537261962890625,1.0398406982421875,0.22979736328125
1783337832896939000,7.20393896484375,0.104400634765625,1.0610809326171875,0.2762603759765625
1783337832906912000,7.213912109375,0.146148681640625,1.0995025634765625,0.2822723388671875
1783337832916885000,7.223885009765625,0.1435699462890625,1.154510498046875,0.284515380859375
1783337832926858000,7.23385791015625,0.077392578125,1.2105560302734375,0.3067474365234375
1783337832936830000,7.243829833984375,-0.0157012939453125,1.2297515869140625,0.2877655029296875
1783337832946803200,7.25380322265625,-0.103485107421875,1.2060089111328125,0.2284088134765625
1783337832956776000,7.26377587890625,-0.1922149658203125,1.173675537109375,0.1842498779296875
1783337832966749000,7.2737490234375,-0.228271484375,1.141143798828125,0.1461334228515625
1783337832976722000,7.283721923828125,-0.2430419921875,1.0964813232421875,0.086700439453125
1783337832986695200,7.293695068359375,-0.27484130859375,1.0375213623046875,-0.001312255859375
1783337832996667000,7.3036669921875,-0.296630859375,1.0086212158203125,-0.0949554443359375
1783337833006639900,7.313639892578125,-0.2480316162109375,0.9727020263671875,-0.237152099609375
1783337833016613000,7.323613037109375,-0.09149169921875,0.93194580078125,-0.427703857421875
1783337833026586000,7.333586181640625,0.0477142333984375,0.9142608642578125,-0.618133544921875
1783337833036559000,7.34355908203125,0.0877532958984375,0.912353515625,-0.7208251953125
1783337833046531800,7.35353173828125,0.0085601806640625,0.9103546142578125,-0.669189453125
1783337833056504000,7.363504150390625,-0.0452117919921875,0.8936004638671875,-0.5553741455078125
1783337833066477000,7.37347705078125,-0.0530242919921875,0.9081268310546875,-0.4549102783203125
1783337833076450000,7.383449951171875,-0.0413818359375,0.9417266845703125,-0.3916473388671875
1783337833086423000,7.393423095703125,-0.0335540771484375,0.970428466796875,-0.3589324951171875
1783337833096396000,7.40339599609375,-0.063140869140625,0.9574432373046875,-0.3244781494140625
1783337833106369000,7.413369140625,-0.1158599853515625,0.929473876953125,-0.29742431640625
1783337833116342000,7.423342041015625,-0.1532745361328125,0.92401123046875,-0.2588043212890625
1783337833126314000,7.43331396484375,-0.17681884765625,0.9155120849609375,-0.225250244140625
1783337833136287000,7.443286865234375,-0.2000274658203125,0.90625,-0.1873931884765625
1783337833146260000,7.453260009765625,-0.2259979248046875,0.888763427734375,-0.151458740234375
1783337833156233000,7.46323291015625,-0.2381439208984375,0.863800048828125,-0.1132049560546875
1783337833166206200,7.473206298828125,-0.230560302734375,0.8316650390625,-0.059112548828125
1783337833176179000,7.483178955078125,-0.201690673828125,0.795440673828125,-0.016448974609375
1783337833186151000,7.49315087890625,-0.152679443359375,0.7459869384765625,0.0143890380859375
1783337833196124200,7.503124267578125,-0.0689849853515625,0.714202880859375,0.041229248046875
1783337833206097200,7.51309716796875,0.016265869140625,0.692657470703125,0.05535888671875
1783337833216070000,7.52306982421875,0.0652618408203125,0.6793975830078125,0.079315185546875
1783337833226043000,7.53304296875,0.08624267578125,0.668914794921875,0.0999908447265625
1783337833236016000,7.54301611328125,0.1079559326171875,0.66064453125,0.10662841796875
1783337833245989000,7.552989013671875,0.1414947509765625,0.6734771728515625,0.079315185546875
1783337833255960800,7.5629609375,0.1824798583984375,0.7119903564453125,0.0370025634765625
1783337833265934000,7.57293408203125,0.2145538330078125,0.7533721923828125,-0.01922607421875
1783337833275907000,7.582906982421875,0.2501678466796875,0.8044891357421875,-0.0722198486328125
1783337833285880000,7.592880126953125,0.3060760498046875,0.8563385009765625,-0.1388397216796875
1783337833295852800,7.602852783203125,0.3686370849609375,0.905364990234375,-0.21484375
1783337833305826000,7.612825927734375,0.402374267578125,0.9569091796875,-0.2863311767578125
1783337833315798000,7.622798095703125,0.3796234130859375,0.9985809326171875,-0.339202880859375
1783337833325771000,7.63277099609375,0.330657958984375,1.0291900634765625,-0.38726806640625
1783337833335744000,7.642743896484375,0.2677154541015625,1.0483856201171875,-0.44317626953125
1783337833345717000,7.652717041015625,0.2022857666015625,1.0440521240234375,-0.490142822265625
1783337833355690000,7.66268994140625,0.1610107421875,1.01715087890625,-0.52490234375
1783337833365663000,7.6726630859375,0.1541290283203125,0.993133544921875,-0.5588836669921875
1783337833375635000,7.682635009765625,0.183624267578125,0.9769744873046875,-0.5843048095703125
1783337833385608000,7.69260791015625,0.229766845703125,0.9778594970703125,-0.60479736328125
1783337833395581000,7.702580810546875,0.2772674560546875,0.994598388671875,-0.62347412109375
1783337833405554200,7.71255419921875,0.29852294921875,1.0185546875,-0.6465606689453125
1783337833415527200,7.722527099609375,0.2842254638671875,1.0296173095703125,-0.6658782958984375
1783337833425500000,7.7325,0.2354278564453125,1.0172882080078125,-0.6631622314453125
1783337833435472100,7.74247216796875,0.1957855224609375,1.00616455078125,-0.59906005859375
1783337833445445000,7.752445068359375,0.1638336181640625,1.0124359130859375,-0.54071044921875
1783337833455418000,7.762418212890625,0.13714599609375,1.0503997802734375,-0.52069091796875
1783337833465390800,7.772390869140625,0.1136016845703125,1.105682373046875,-0.487640380859375
1783337833475364000,7.782364013671875,0.08575439453125,1.177734375,-0.425201416015625
1783337833485337000,7.792337158203125,0.036468505859375,1.2467498779296875,-0.3493499755859375
1783337833495309000,7.80230908203125,-0.0139312744140625,1.3005523681640625,-0.274261474609375
1783337833505282000,7.812281982421875,-0.0483245849609375,1.3329315185546875,-0.1938629150390625
1783337833515255000,7.822255126953125,-0.052764892578125,1.3381805419921875,-0.1330413818359375
1783337833525228000,7.83222802734375,-0.0503692626953125,1.3082733154296875,-0.1043548583984375
1783337833535201000,7.842200927734375,-0.0504150390625,1.2387847900390625,-0.1012115478515625
1783337833545174000,7.852174072265625,-0.05419921875,1.1363677978515625,-0.1023101806640625
1783337833555147000,7.86214697265625,-0.065460205078125,1.0172882080078125,-0.034027099609375
1783337833565119000,7.872118896484375,-0.0548553466796875,0.89959716796875,0.093536376953125
1783337833575092000,7.882092041015625,-0.0283050537109375,0.837005615234375,0.2032012939453125
1783337833585065200,7.892065185546875,-0.024078369140625,0.8033599853515625,0.2772216796875
1783337833595038000,7.902037841796875,-0.039947509765625,0.7971954345703125,0.3216094970703125
1783337833605011000,7.912010986328125,-0.0505828857421875,0.8053131103515625,0.3087310791015625
1783337833614984000,7.92198388671875,-0.04840087890625,0.81915283203125,0.30621337890625
1783337833624956200,7.9319560546875,-0.0585784912109375,0.8423309326171875,0.2957763671875
1783337833634929000,7.941928955078125,-0.075927734375,0.8689422607421875,0.242034912109375
1783337833644902000,7.95190185546875,-0.1211395263671875,0.88018798828125,0.1587066650390625
1783337833654875600,7.961875732421875,-0.1756591796875,0.883544921875,0.0823974609375
1783337833664849000,7.971848876953125,-0.2220916748046875,0.8876800537109375,0.038543701171875
1783337833674821600,7.981821533203125,-0.2490081787109375,0.8996734619140625,-0.0015106201171875
1783337833684793600,7.991793701171875,-0.271148681640625,0.9147491455078125,-0.0563507080078125
1783337833694766800,8.001766845703125,-0.2896728515625,0.928497314453125,-0.109893798828125
1783337833704739800,8.01173974609375,-0.332733154296875,0.9208221435546875,-0.1396331787109375
1783337833714712600,8.021712646484374,-0.374542236328125,0.9195098876953125,-0.1149444580078125
1783337833724685600,8.031685546875,-0.42095947265625,0.9379730224609375,-0.084381103515625
1783337833734658800,8.041658935546875,-0.4398956298828125,0.9634246826171875,-0.084716796875
1783337833744630800,8.051630859375,-0.423431396484375,0.976806640625,-0.0978240966796875
1783337833754603500,8.061603515625,-0.395050048828125,0.980010986328125,-0.0978240966796875
1783337833764576800,8.07157666015625,-0.3533935546875,0.992828369140625,-0.1202850341796875
1783337833774549800,8.0815498046875,-0.300384521484375,0.9981536865234375,-0.1374664306640625
1783337833784522800,8.091522705078125,-0.2276458740234375,1.018646240234375,-0.117919921875
1783337833794495700,8.101495849609375,-0.1507568359375,1.01422119140625,-0.1566009521484375
1783337833804467700,8.1114677734375,-0.083221435546875,0.993072509765625,-0.246612548828125
1783337833814440700,8.121440673828126,-0.013702392578125,0.9757843017578125,-0.32232666015625
1783337833824413700,8.13141357421875,0.0498504638671875,0.9532928466796875,-0.3676300048828125
1783337833834387000,8.141386962890625,0.1075897216796875,0.9318695068359375,-0.3800811767578125
1783337833844359700,8.151359619140624,0.150787353515625,0.9199066162109375,-0.3636016845703125
1783337833854332700,8.161332763671876,0.168609619140625,0.909759521484375,-0.3293609619140625
1783337833864305700,8.1713056640625,0.1426544189453125,0.9028472900390625,-0.3022003173828125
1783337833874278000,8.18127783203125,0.0758514404296875,0.900726318359375,-0.2919464111328125
1783337833884250600,8.191250732421874,0.006622314453125,0.923583984375,-0.2642669677734375
1783337833894223600,8.2012236328125,-0.04425048828125,0.9371795654296875,-0.223541259765625
1783337833904196900,8.21119677734375,-0.087646484375,0.93670654296875,-0.1985015869140625
1783337833914169900,8.221169921875,-0.124481201171875,0.9400177001953125,-0.165313720703125
1783337833924142800,8.231142822265625,-0.1567535400390625,0.948333740234375,-0.1172943115234375
1783337833934114800,8.24111474609375,-0.1902618408203125,0.95367431640625,-0.08941650390625
1783337833944087800,8.251087890625,-0.219970703125,0.9519805908203125,-0.0861358642578125
1783337833954060800,8.261060791015625,-0.23223876953125,0.9529571533203125,-0.0846710205078125
1783337833964033500,8.271033447265625,-0.232940673828125,0.9580078125,-0.08648681640625
1783337833974006500,8.281006591796874,-0.22528076171875,0.9577484130859375,-0.09942626953125
1783337833983979800,8.290979736328126,-0.203338623046875,0.9536285400390625,-0.1106109619140625
1783337833993951700,8.30095166015625,-0.1674041748046875,0.9467620849609375,-0.1197052001953125
1783337834003924700,8.3109248046875,-0.1292266845703125,0.9424285888671875,-0.1294097900390625
1783337834013897700,8.320897705078124,-0.09710693359375,0.943359375,-0.13897705078125
1783337834023870700,8.33087060546875,-0.07464599609375,0.93951416015625,-0.1460418701171875
1783337834033843700,8.34084375,-0.0548553466796875,0.9362335205078125,-0.1480865478515625
1783337834043816700,8.350816650390625,-0.0373077392578125,0.951568603515625,-0.1531829833984375
1783337834053788700,8.36078857421875,-0.02752685546875,0.988983154296875,-0.1667327880859375
1783337834063761700,8.37076171875,-0.0176849365234375,1.03759765625,-0.195648193359375
1783337834073734700,8.380734619140625,-0.0099945068359375,1.0827789306640625,-0.239227294921875
1783337834083708000,8.3907080078125,-0.0006866455078125,1.1114044189453125,-0.282989501953125
1783337834093680600,8.4006806640625,0.0113067626953125,1.1256866455078125,-0.3149261474609375
1783337834103653600,8.410653564453124,0.018585205078125,1.122222900390625,-0.3411712646484375
1783337834113625900,8.4206259765625,0.02032470703125,1.1045379638671875,-0.3722991943359375
1783337834123598800,8.430598876953125,0.031341552734375,1.073089599609375,-0.39202880859375
1783337834133571600,8.440571533203125,0.049896240234375,1.04827880859375,-0.3825836181640625
1783337834143544600,8.450544677734374,0.06781005859375,1.03741455078125,-0.349273681640625
1783337834153517800,8.460517822265626,0.072174072265625,1.0430450439453125,-0.3045196533203125
1783337834163490800,8.47049072265625,0.0481414794921875,1.0665435791015625,-0.261322021484375
1783337834173462500,8.480462646484375,-0.00274658203125,1.101715087890625,-0.2266693115234375
1783337834183435800,8.490435791015624,-0.05316162109375,1.1356658935546875,-0.2015228271484375
1783337834193408800,8.50040869140625,-0.086151123046875,1.163330078125,-0.1893310546875
1783337834203381800,8.5103818359375,-0.10003662109375,1.1871185302734375,-0.1868896484375
1783337834213354800,8.520354736328125,-0.1060638427734375,1.207916259765625,-0.1848602294921875
1783337834223327700,8.53032763671875,-0.112274169921875,1.2169036865234375,-0.1809539794921875
1783337834233299700,8.5402998046875,-0.1201324462890625,1.210418701171875,-0.181793212890625
1783337834243272700,8.550272705078125,-0.122711181640625,1.1794586181640625,-0.18048095703125
1783337834253246000,8.560245849609375,-0.115203857421875,1.1494598388671875,-0.1734771728515625
1783337834263218700,8.57021875,-0.095245361328125,1.1315765380859375,-0.16815185546875
1783337834273191700,8.580191650390624,-0.07379150390625,1.111236572265625,-0.1501007080078125
1783337834283164700,8.59016455078125,-0.0688018798828125,1.0744781494140625,-0.12890625
1783337834293137000,8.600136962890625,-0.084869384765625,1.0215301513671875,-0.0944976806640625
1783337834303109600,8.610109619140625,-0.0911407470703125,0.998870849609375,-0.067718505859375
1783337834313082600,8.62008251953125,-0.0799713134765625,1.0171966552734375,-0.0409088134765625
1783337834323055900,8.630055908203126,-0.045928955078125,1.0406341552734375,-0.016754150390625
1783337834333028900,8.64002880859375,-0.0058441162109375,1.0781097412109375,-0.0069580078125
1783337834343001600,8.650001708984375,0.007415771484375,1.11737060546875,0.004547119140625
1783337834352973800,8.659973876953124,-0.002655029296875,1.135894775390625,0.05029296875
1783337834362946800,8.66994677734375,-0.02069091796875,1.136871337890625,0.1190185546875
1783337834372919800,8.679919921875,-0.0314483642578125,1.130126953125,0.1627349853515625
1783337834382892500,8.689892578125,-0.04248046875,1.12200927734375,0.1827545166015625
1783337834392865500,8.699865478515624,-0.077423095703125,1.1099090576171875,0.1773223876953125
1783337834402838800,8.7098388671875,-0.1313629150390625,1.1075592041015625,0.1533660888671875
1783337834412810800,8.719810791015625,-0.1575927734375,1.1115264892578125,0.1379547119140625
1783337834422783500,8.729783447265625,-0.17572021484375,1.085693359375,0.1069183349609375
1783337834432756700,8.7397568359375,-0.172027587890625,1.0298309326171875,0.003692626953125
1783337834442729700,8.749729736328124,-0.103515625,0.9746551513671875,-0.178436279296875
1783337834452702700,8.75970263671875,0.0006103515625,0.9535675048828125,-0.3507080078125
1783337834462675700,8.76967578125,0.0304718017578125,0.94122314453125,-0.435699462890625
1783337834472647700,8.779647705078125,-0.0249481201171875,0.914337158203125,-0.4674835205078125
1783337834482620700,8.78962060546875,-0.0523681640625,0.9097747802734375,-0.4534149169921875
1783337834492593700,8.79959375,-0.0457000732421875,0.9152984619140625,-0.3718719482421875
1783337834502567000,8.80956689453125,-0.066558837890625,0.92059326171875,-0.2754669189453125
1783337834512539600,8.81953955078125,-0.0983428955078125,0.90509033203125,-0.2283172607421875
1783337834522512600,8.8295126953125,-0.13885498046875,0.886199951171875,-0.225433349609375
1783337834532484900,8.83948486328125,-0.188934326171875,0.884490966796875,-0.2267913818359375
1783337834542457900,8.849457763671875,-0.2162017822265625,0.8803558349609375,-0.232574462890625
1783337834552430600,8.8594306640625,-0.2232818603515625,0.8787078857421875,-0.2121124267578125
1783337834562403600,8.869403564453124,-0.2202911376953125,0.8656158447265625,-0.176544189453125
1783337834572376800,8.879376953125,-0.210235595703125,0.833404541015625,-0.1341705322265625
1783337834582349800,8.889349853515625,-0.1903839111328125,0.79803466796875,-0.0871429443359375
1783337834592321500,8.899321533203125,-0.148895263671875,0.7670745849609375,-0.05413818359375
1783337834602294800,8.909294677734374,-0.104461669921875,0.7116851806640625,-0.0138702392578125
1783337834612267800,8.919267822265626,-0.060333251953125,0.6738433837890625,0.02569580078125
1783337834622240800,8.92924072265625,-0.0113372802734375,0.6592254638671875,0.0614166259765625
1783337834632213800,8.9392138671875,0.0269317626953125,0.6495361328125,0.10186767578125
1783337834642185700,8.949185791015625,0.05078125,0.64605712890625,0.1177520751953125
1783337834652157200,8.9591572265625,0.0674591064453125,0.64678955078125,0.1114349365234375
1783337834662130200,8.969130126953125,0.1113128662109375,0.6572723388671875,0.0977020263671875
1783337834672103200,8.979103271484375,0.1782989501953125,0.696685791015625,0.0841064453125
1783337834682076200,8.989076171875,0.238922119140625,0.7295684814453125,0.0409393310546875
1783337834692049200,8.999049072265626,0.306365966796875,0.7698822021484375,-0.0298004150390625
1783337834702021000,9.009021240234375,0.3798065185546875,0.8199615478515625,-0.124664306640625
1783337834711994000,9.018994140625,0.4303741455078125,0.881805419921875,-0.204315185546875
1783337834721967000,9.028967041015624,0.4177093505859375,0.940093994140625,-0.2802581787109375
1783337834731940000,9.038940185546876,0.3535919189453125,0.985015869140625,-0.363494873046875
1783337834741913000,9.0489130859375,0.2829742431640625,1.0335693359375,-0.4381561279296875
1783337834751886000,9.058885986328125,0.26190185546875,1.08770751953125,-0.507080078125
1783337834761858300,9.0688583984375,0.275726318359375,1.137969970703125,-0.572021484375
1783337834771831000,9.0788310546875,0.298553466796875,1.1919097900390625,-0.626922607421875
1783337834781804000,9.088803955078125,0.3131561279296875,1.2309112548828125,-0.656097412109375
1783337834791777000,9.098777099609375,0.32098388671875,1.2563934326171875,-0.634002685546875
1783337834801750300,9.108750244140625,0.3174285888671875,1.259002685546875,-0.5864410400390625
1783337834811723300,9.11872314453125,0.2846832275390625,1.2378997802734375,-0.5493011474609375
1783337834821695000,9.128695068359375,0.235565185546875,1.200042724609375,-0.5157012939453125
1783337834831668200,9.138668212890625,0.1876373291015625,1.1580963134765625,-0.4679718017578125
1783337834841641200,9.14864111328125,0.142913818359375,1.1363525390625,-0.43280029296875
1783337834851614200,9.1586142578125,0.11309814453125,1.1613006591796875,-0.3775177001953125
1783337834861587000,9.1685869140625,0.0882720947265625,1.2308807373046875,-0.3065185546875
1783337834871560200,9.178560302734375,0.0428924560546875,1.32257080078125,-0.258392333984375
1783337834881532200,9.1885322265625,-0.00714111328125,1.41107177734375,-0.2368927001953125
1783337834891505200,9.198505126953124,-0.0531005859375,1.466217041015625,-0.2256622314453125
1783337834901478100,9.20847802734375,-0.099884033203125,1.431488037109375,-0.20703125
1783337834911451100,9.218451171875,-0.1396484375,1.279937744140625,-0.1697540283203125
1783337834921424100,9.228424072265625,-0.176727294921875,1.058074951171875,-0.1124267578125
1783337834931397000,9.238397216796875,-0.212890625,0.8720550537109375,0.00250244140625
1783337834941369000,9.248369140625,-0.2461090087890625,0.7440643310546875,0.13739013671875
1783337834951342000,9.258342041015625,-0.2724456787109375,0.6838531494140625,0.24859619140625
1783337834961315000,9.268315185546875,-0.2601165771484375,0.6512908935546875,0.3087158203125
1783337834971288300,9.278288330078125,-0.222076416015625,0.622772216796875,0.3243255615234375
1783337834981261300,9.28826123046875,-0.1656951904296875,0.6069793701171875,0.319305419921875
1783337834991233000,9.29823291015625,-0.1226959228515625,0.6101531982421875,0.2828369140625
1783337835001206300,9.308206298828125,-0.10528564453125,0.6635284423828125,0.209503173828125
1783337835011179300,9.31817919921875,-0.1136627197265625,0.7642059326171875,0.162628173828125
1783337835021152300,9.32815234375,-0.1165313720703125,0.89300537109375,0.1337127685546875
1783337835031125000,9.338125,-0.1444549560546875,1.022918701171875,0.0760955810546875
1783337835041098200,9.34809814453125,-0.2050018310546875,1.106475830078125,-0.0209808349609375
1783337835051071200,9.3580712890625,-0.2573699951171875,1.143096923828125,-0.0877532958984375
1783337835061043000,9.36804296875,-0.26739501953125,1.150665283203125,-0.1000823974609375
1783337835071016200,9.37801611328125,-0.2718353271484375,1.1133880615234375,-0.119476318359375
1783337835080989200,9.3879892578125,-0.2631683349609375,1.0444793701171875,-0.1371917724609375
1783337835090962200,9.397962158203125,-0.2458038330078125,0.983489990234375,-0.1547088623046875
1783337835100935200,9.40793505859375,-0.218719482421875,0.937957763671875,-0.14495849609375
1783337835110908000,9.417907958984374,-0.191741943359375,0.918365478515625,-0.1290283203125
1783337835120880000,9.427880126953125,-0.153472900390625,0.909332275390625,-0.1279144287109375
1783337835130853000,9.43785302734375,-0.10125732421875,0.917205810546875,-0.148223876953125
1783337835140826000,9.447826171875,-0.042755126953125,0.9365692138671875,-0.1946868896484375
1783337835150799000,9.457799072265624,0.01025390625,0.9566802978515625,-0.23895263671875
1783337835160772000,9.467772216796876,0.057891845703125,0.957611083984375,-0.2848358154296875
1783337835170744000,9.477744140625,0.08282470703125,0.9417266845703125,-0.2997589111328125
1783337835180717300,9.48771728515625,0.0873870849609375,0.9170684814453125,-0.309295654296875
1783337835190690000,9.49768994140625,0.0672607421875,0.89874267578125,-0.3038787841796875
1783337835200663000,9.5076630859375,0.0306396484375,0.8908843994140625,-0.2801971435546875
1783337835210636000,9.517635986328125,-0.017852783203125,0.8829498291015625,-0.2646636962890625
1783337835220609300,9.527609375,-0.066558837890625,0.88134765625,-0.2523651123046875
1783337835230581000,9.5375810546875,-0.1091766357421875,0.8923187255859375,-0.241455078125
1783337835240554000,9.547553955078126,-0.13897705078125,0.9024810791015625,-0.231781005859375
1783337835250527200,9.55752734375,-0.1656494140625,0.912078857421875,-0.21527099609375
1783337835260500200,9.567500244140625,-0.1870269775390625,0.913116455078125,-0.1937255859375
1783337835270473200,9.57747314453125,-0.20196533203125,0.916259765625,-0.1707916259765625
1783337835280446000,9.587446044921874,-0.2037200927734375,0.9163360595703125,-0.1530609130859375
1783337835290418200,9.597418212890625,-0.1966400146484375,0.9241943359375,-0.1321563720703125
1783337835300391200,9.60739111328125,-0.189727783203125,0.9298248291015625,-0.1139068603515625
1783337835310364200,9.6173642578125,-0.1780853271484375,0.9432525634765625,-0.1036376953125
1783337835320337200,9.627337158203124,-0.160003662109375,0.96014404296875,-0.093231201171875
1783337835330310100,9.63731005859375,-0.1415557861328125,0.979644775390625,-0.0858917236328125
1783337835340282000,9.6472822265625,-0.118316650390625,0.9949798583984375,-0.078887939453125
1783337835350255400,9.65725537109375,-0.0943603515625,0.998687744140625,-0.08111572265625
1783337835360228000,9.66722802734375,-0.07000732421875,1.0020751953125,-0.082489013671875
1783337835370201000,9.677201171875,-0.0489044189453125,0.993438720703125,-0.085205078125
1783337835380173300,9.68717333984375,-0.0426483154296875,0.9842681884765625,-0.0850830078125
1783337835390146300,9.697146240234375,-0.037078857421875,0.9788970947265625,-0.0913238525390625
1783337835400119000,9.707119140625,-0.0360107421875,0.9882965087890625,-0.09844970703125
1783337835410092000,9.717092041015626,-0.044342041015625,1.0158843994140625,-0.11492919921875
1783337835420065300,9.727065185546875,-0.0484619140625,1.0524139404296875,-0.1403656005859375
1783337835430037000,9.737037109375,-0.04547119140625,1.0926666259765625,-0.17132568359375
1783337835440010000,9.747010009765624,-0.038055419921875,1.1263580322265625,-0.2051239013671875
1783337835449983200,9.756983154296876,-0.028900146484375,1.1400604248046875,-0.2461090087890625
1783337835459956200,9.766956298828125,-0.0165557861328125,1.1341400146484375,-0.28826904296875
1783337835469929200,9.77692919921875,0.0047760009765625,1.1156768798828125,-0.3195343017578125
1783337835479902000,9.78690185546875,0.022430419921875,1.0943603515625,-0.3489990234375
1783337835489874200,9.796874267578126,0.0346832275390625,1.07958984375,-0.374542236328125
1783337835499847200,9.80684716796875,0.0445709228515625,1.065216064453125,-0.3907470703125
1783337835509820200,9.816820068359375,0.0501251220703125,1.0636444091796875,-0.4005889892578125
1783337835519793200,9.826793212890625,0.0477142333984375,1.08087158203125,-0.40460205078125
1783337835529766100,9.83676611328125,0.0299835205078125,1.0974273681640625,-0.4078369140625
1783337835539738000,9.846738037109375,0.001617431640625,1.10955810546875,-0.4060516357421875
1783337835549711000,9.856711181640625,-0.0292816162109375,1.132568359375,-0.400421142578125
1783337835559684000,9.86668408203125,-0.05078125,1.1622467041015625,-0.396331787109375
1783337835569657000,9.876656982421874,-0.06536865234375,1.177978515625,-0.38909912109375
1783337835579630000,9.886630126953126,-0.0767822265625,1.1701812744140625,-0.3675079345703125
1783337835589603000,9.89660302734375,-0.0827484130859375,1.146453857421875,-0.344879150390625
1783337835599575000,9.906574951171875,-0.074981689453125,1.116455078125,-0.317169189453125
1783337835609548000,9.916548095703124,-0.05902099609375,1.0915985107421875,-0.2789459228515625
1783337835619521000,9.92652099609375,-0.0458526611328125,1.06610107421875,-0.2189178466796875
1783337835629494300,9.936494384765625,-0.035797119140625,1.049713134765625,-0.143585205078125
1783337835639467300,9.94646728515625,-0.0354156494140625,1.050323486328125,-0.063385009765625
1783337835649439000,9.95643896484375,-0.0265655517578125,1.07354736328125,0.0159759521484375
1783337835659412500,9.96641259765625,-0.0084686279296875,1.113983154296875,0.094696044921875
1783337835669385500,9.976385498046875,0.002960205078125,1.1648712158203125,0.1708831787109375
1783337835679358500,9.9863583984375,0.02044677734375,1.2088165283203125,0.2140960693359375
1783337835689331500,9.99633154296875,0.029937744140625,1.2310333251953125,0.247467041015625
1783337835699304700,10.0063046875,-0.00244140625,1.2160491943359375,0.2791900634765625
1783337835709276400,10.0162763671875,-0.0601043701171875,1.1799774169921875,0.295379638671875
1783337835719249400,10.02624951171875,-0.1185455322265625,1.149810791015625,0.286529541015625
1783337835729222700,10.03622265625,-0.1656646728515625,1.1135406494140625,0.2513275146484375
1783337835739195600,10.046195556640624,-0.228271484375,1.076446533203125,0.1768798828125
1783337835749168400,10.05616845703125,-0.29864501953125,1.052581787109375,0.08538818359375
1783337835759140600,10.066140625,-0.3382110595703125,1.0347747802734375,0.0160064697265625
1783337835769113600,10.076113525390625,-0.2999725341796875,0.9779205322265625,-0.1165771484375
1783337835779086600,10.086086669921874,-0.1405181884765625,0.9169464111328125,-0.31964111328125
1783337835789059300,10.096059326171876,0.0848846435546875,0.861907958984375,-0.5811004638671875
1783337835799032600,10.106032470703125,0.1089324951171875,0.8426513671875,-0.7513275146484375
1783337835809005600,10.116005615234375,0.00189208984375,0.86151123046875,-0.71893310546875
1783337835818977300,10.125977294921874,-0.0250091552734375,0.9006805419921875,-0.59429931640625
1783337835828950500,10.135950439453126,-0.02996826171875,0.922637939453125,-0.4746551513671875
1783337835838923500,10.145923583984375,-0.0439453125,0.931304931640625,-0.364013671875
1783337835848896500,10.155896484375,-0.080810546875,0.9290771484375,-0.308197021484375
1783337835858869500,10.165869384765625,-0.141143798828125,0.9218597412109375,-0.3210296630859375
1783337835868841500,10.175841552734376,-0.1799774169921875,0.9321136474609375,-0.3129730224609375
1783337835878814500,10.185814453125,-0.19268798828125,0.9548187255859375,-0.2821044921875
1783337835888787500,10.195787353515625,-0.200775146484375,0.9549407958984375,-0.2374114990234375
1783337835898760400,10.205760498046875,-0.2159576416015625,0.93402099609375,-0.1879119873046875
1783337835908733400,10.2157333984375,-0.2334442138671875,0.900665283203125,-0.1217041015625
1783337835918705400,10.225705322265625,-0.233795166015625,0.8643035888671875,-0.0406646728515625
1783337835928678400,10.235678466796875,-0.213470458984375,0.8188323974609375,0.0233001708984375
1783337835938651600,10.245651611328125,-0.18768310546875,0.770660400390625,0.071868896484375
1783337835948624400,10.255624267578124,-0.141143798828125,0.72027587890625,0.1177825927734375
1783337835958597400,10.265597412109376,-0.080230712890625,0.6852569580078125,0.1554412841796875
1783337835968570400,10.2755703125,-0.0241241455078125,0.66046142578125,0.1782379150390625
1783337835978542600,10.28554248046875,0.004241943359375,0.649627685546875,0.186279296875
1783337835988515300,10.295515380859374,0.0232086181640625,0.6463165283203125,0.1738128662109375
1783337835998488300,10.30548828125,0.0583953857421875,0.64697265625,0.155059814453125
1783337836008461600,10.315461669921875,0.111419677734375,0.6529998779296875,0.127471923828125
1783337836018434600,10.3254345703125,0.1677093505859375,0.6829986572265625,0.100555419921875
1783337836028406300,10.33540625,0.207061767578125,0.73114013671875,0.079376220703125
1783337836038379500,10.345379638671876,0.248687744140625,0.773101806640625,0.0221099853515625
1783337836048352500,10.3553525390625,0.3187408447265625,0.8259429931640625,-0.0539398193359375
1783337836058325500,10.365325439453125,0.36761474609375,0.8951416015625,-0.1122589111328125
1783337836068298500,10.375298583984375,0.3575439453125,0.958709716796875,-0.165802001953125
1783337836078271500,10.385271484375,0.3136444091796875,0.999237060546875,-0.2365264892578125
1783337836088243500,10.395243408203125,0.2754974365234375,1.030792236328125,-0.3271484375
1783337836098216400,10.405216552734375,0.2803955078125,1.0893096923828125,-0.4077606201171875
1783337836108189700,10.415189697265625,0.3099212646484375,1.1663055419921875,-0.4977569580078125
1783337836118162400,10.425162353515624,0.3603363037109375,1.2442169189453125,-0.6083831787109375
1783337836128135400,10.435135498046876,0.421234130859375,1.3029327392578125,-0.7072906494140625
1783337836138107600,10.445107666015625,0.4534759521484375,1.3188323974609375,-0.7555694580078125
1783337836148080600,10.45508056640625,0.4119873046875,1.2689056396484375,-0.7488555908203125
1783337836158053400,10.465053466796874,0.3354339599609375,1.1716766357421875,-0.73431396484375
1783337836168026400,10.4750263671875,0.2548370361328125,1.058074951171875,-0.67828369140625
1783337836177999600,10.48499951171875,0.18585205078125,0.9720001220703125,-0.5930633544921875
1783337836187971300,10.494971435546875,0.160736083984375,0.9197235107421875,-0.548797607421875
1783337836197944300,10.5049443359375,0.1759490966796875,0.9012451171875,-0.5772552490234375
1783337836207917600,10.51491748046875,0.1750640869140625,0.9026947021484375,-0.636474609375
1783337836217890600,10.524890625,0.1520233154296875,0.9548492431640625,-0.6402740478515625
1783337836227863600,10.534863525390625,0.08282470703125,1.0533599853515625,-0.5862274169921875
1783337836237836300,10.544836181640624,-0.05084228515625,1.1749114990234375,-0.5046234130859375
1783337836247808500,10.55480859375,-0.2007293701171875,1.2720489501953125,-0.4195098876953125
1783337836257781500,10.564781494140625,-0.25103759765625,1.348785400390625,-0.343536376953125
1783337836267754500,10.57475439453125,-0.21063232421875,1.39031982421875,-0.3103790283203125
1783337836277727500,10.5847275390625,-0.1695404052734375,1.3643341064453125,-0.2554473876953125
1783337836287700500,10.594700439453124,-0.164764404296875,1.2469329833984375,-0.170196533203125
1783337836297672400,10.60467236328125,-0.18145751953125,1.08404541015625,-0.0670318603515625
1783337836307645400,10.6146455078125,-0.19818115234375,0.9267578125,0.0648193359375
1783337836317618400,10.624618408203125,-0.18731689453125,0.8261871337890625,0.2319488525390625
1783337836327591400,10.63459130859375,-0.13031005859375,0.7661895751953125,0.356781005859375
1783337836337564400,10.644564453125,-0.056610107421875,0.7092742919921875,0.398651123046875
1783337836347536600,10.65453662109375,0.008331298828125,0.6601104736328125,0.3792572021484375
1783337836357509400,10.66450927734375,0.0503387451171875,0.631927490234375,0.348114013671875
1783337836367482400,10.674482421875,0.0702056884765625,0.656402587890625,0.302276611328125
1783337836377455400,10.684455322265626,0.0657806396484375,0.7441253662109375,0.2490692138671875
1783337836387428600,10.6944287109375,-0.0001678466796875,0.872344970703125,0.2329864501953125
1783337836397401600,10.704401611328125,-0.153900146484375,0.9750213623046875,0.1927642822265625
1783337836407373300,10.714373291015624,-0.310516357421875,1.03564453125,0.100494384765625
1783337836417346600,10.7243466796875,-0.4051513671875,1.0546112060546875,0.00946044921875
1783337836427319600,10.734319580078125,-0.4534454345703125,1.0416107177734375,-0.0569610595703125
1783337836437292500,10.74429248046875,-0.4828338623046875,1.010528564453125,-0.102203369140625
1783337836447265300,10.754265380859374,-0.4910125732421875,0.97821044921875,-0.112640380859375
1783337836457237500,10.764237548828126,-0.466705322265625,0.9637603759765625,-0.09967041015625
1783337836467210500,10.77421044921875,-0.4237060546875,0.9488677978515625,-0.078033447265625
1783337836477183500,10.78418359375,-0.3704833984375,0.92193603515625,-0.05535888671875
1783337836487156500,10.794156494140625,-0.3226470947265625,0.89483642578125,-0.039886474609375
1783337836497129500,10.80412939453125,-0.2922821044921875,0.883209228515625,-0.0394287109375
1783337836507101400,10.814101318359375,-0.257598876953125,0.90484619140625,-0.050537109375
1783337836517074700,10.82407470703125,-0.1946258544921875,0.97088623046875,-0.06982421875
1783337836527047400,10.83404736328125,-0.0941162109375,1.048126220703125,-0.1048736572265625
1783337836537020400,10.8440205078125,0.05322265625,1.085357666015625,-0.155975341796875
1783337836546993400,10.853993408203126,0.1825103759765625,1.0659332275390625,-0.2346649169921875
1783337836556965600,10.863965576171875,0.2834625244140625,1.0199127197265625,-0.326751708984375
1783337836566938400,10.8739384765625,0.3603515625,0.965545654296875,-0.3811798095703125
1783337836576911400,10.883911376953124,0.3897705078125,0.9131927490234375,-0.409423828125
1783337836586884600,10.893884521484376,0.347564697265625,0.876312255859375,-0.417022705078125
1783337836596857600,10.903857666015625,0.2341461181640625,0.86651611328125,-0.39691162109375
1783337836606830300,10.913830322265625,0.0957489013671875,0.8899078369140625,-0.3613433837890625
1783337836616802600,10.923802490234374,-0.0329132080078125,0.921722412109375,-0.3246307373046875
1783337836626775600,10.933775634765626,-0.1299285888671875,0.936309814453125,-0.2946929931640625
1783337836636748500,10.94374853515625,-0.200927734375,0.9317474365234375,-0.2724151611328125
1783337836646721300,10.95372119140625,-0.2542266845703125,0.9248199462890625,-0.2460174560546875
1783337836656694300,10.9636943359375,-0.2974395751953125,0.920501708984375,-0.218841552734375
1783337836666666000,10.973666015625,-0.3328704833984375,0.924713134765625,-0.1923980712890625
1783337836676639000,10.983638916015625,-0.34722900390625,0.9336395263671875,-0.166351318359375
1783337836686612200,10.9936123046875,-0.3266143798828125,0.9454193115234375,-0.1551971435546875
1783337836696585200,11.003585205078124,-0.2666778564453125,0.9576416015625,-0.1525115966796875
1783337836706558000,11.013557861328126,-0.20477294921875,0.969482421875,-0.146148681640625
1783337836716530200,11.0235302734375,-0.1593780517578125,0.9866943359375,-0.1443939208984375
1783337836726503200,11.033503173828125,-0.1220550537109375,1.005279541015625,-0.147308349609375
1783337836736476200,11.04347607421875,-0.0831298828125,1.003021240234375,-0.1422882080078125
1783337836746449000,11.053448974609376,-0.0356903076171875,0.9815673828125,-0.1322479248046875
1783337836756422100,11.063422119140625,0.007904052734375,0.9657745361328125,-0.131256103515625
1783337836766394000,11.07339404296875,0.036865234375,0.9651947021484375,-0.1405029296875
1783337836776367000,11.0833671875,0.0489044189453125,0.9838409423828125,-0.14776611328125
1783337836786340000,11.093340087890626,0.045013427734375,1.0142669677734375,-0.1575469970703125
1783337836796313000,11.10331298828125,0.0288238525390625,1.0536956787109375,-0.176361083984375
1783337836806286000,11.1132861328125,-0.0006103515625,1.0948944091796875,-0.2022705078125
1783337836816258300,11.12325830078125,-0.02593994140625,1.1301727294921875,-0.2308349609375
1783337836826231000,11.13323095703125,-0.031646728515625,1.15673828125,-0.25946044921875
1783337836836204000,11.1432041015625,-0.0363616943359375,1.158538818359375,-0.29339599609375
1783337836846177000,11.153177001953125,-0.034149169921875,1.14276123046875,-0.338653564453125
1783337836856150300,11.163150390625,-0.0240020751953125,1.1325836181640625,-0.3726959228515625
1783337836866123300,11.173123291015624,-0.011260986328125,1.12335205078125,-0.3827667236328125
1783337836876095000,11.183094970703126,-0.0005340576171875,1.11383056640625,-0.3762359619140625
1783337836886068200,11.193068115234375,0.008819580078125,1.1042327880859375,-0.359466552734375
1783337836896041200,11.203041259765625,0.007293701171875,1.0959014892578125,-0.334747314453125
1783337836906014200,11.21301416015625,-0.0016937255859375,1.0990753173828125,-0.3081207275390625
1783337836915987000,11.222987060546876,-0.0122833251953125,1.108978271484375,-0.294036865234375
1783337836925959200,11.232959228515625,-0.0219573974609375,1.1159820556640625,-0.2891082763671875
1783337836935932200,11.24293212890625,-0.022796630859375,1.117706298828125,-0.2737579345703125
1783337836945905200,11.2529052734375,-0.016632080078125,1.1002197265625,-0.2491607666015625
1783337836955878100,11.262878173828126,-0.002227783203125,1.0664520263671875,-0.2351531982421875
1783337836965851100,11.27285107421875,0.0203094482421875,1.0454864501953125,-0.23291015625
1783337836975823000,11.282822998046875,0.04119873046875,1.030487060546875,-0.217803955078125
1783337836985796000,11.292796142578124,0.053924560546875,1.026641845703125,-0.18804931640625
1783337836995769000,11.30276904296875,0.0702056884765625,1.02783203125,-0.1385345458984375
1783337837005742000,11.3127421875,0.0973052978515625,1.0358734130859375,-0.1086578369140625
1783337837015715000,11.322715087890625,0.1134033203125,1.09417724609375,-0.062713623046875
1783337837025687000,11.33268701171875,0.133758544921875,1.17529296875,0.0035400390625
1783337837035660000,11.342659912109376,0.1090087890625,1.226593017578125,0.0337982177734375
1783337837045633000,11.352633056640625,0.0452117919921875,1.268310546875,0.0691070556640625
1783337837055606000,11.36260595703125,-0.0299530029296875,1.279815673828125,0.1184234619140625
1783337837065579300,11.372579345703125,-0.1035308837890625,1.264129638671875,0.1744232177734375
1783337837075551000,11.382551025390624,-0.1641693115234375,1.242401123046875,0.21197509765625
1783337837085524000,11.39252392578125,-0.2372894287109375,1.2214508056640625,0.206695556640625
1783337837095497200,11.402497314453125,-0.3304901123046875,1.1920166015625,0.19677734375
1783337837105470200,11.41247021484375,-0.444488525390625,1.1627655029296875,0.150665283203125
1783337837115443000,11.42244287109375,-0.469696044921875,1.1457366943359375,0.129302978515625
1783337837125415200,11.432415283203126,-0.39691162109375,1.05780029296875,0.063018798828125
1783337837135388200,11.44238818359375,-0.2209930419921875,0.9629974365234375,-0.09649658203125
1783337837145361200,11.452361083984375,0.14080810546875,0.89691162109375,-0.3167724609375
1783337837155334000,11.462333984375,0.301300048828125,0.852813720703125,-0.529510498046875
1783337837165307100,11.47230712890625,0.2156829833984375,0.828155517578125,-0.5865020751953125
1783337837175279000,11.482279052734375,0.1278076171875,0.824462890625,-0.5442962646484375
1783337837185252000,11.492252197265625,0.114715576171875,0.8444366455078125,-0.4228668212890625
1783337837195225000,11.50222509765625,0.0521697998046875,0.848602294921875,-0.3013458251953125
1783337837205198000,11.512197998046876,-0.0384674072265625,0.8497314453125,-0.212432861328125
1783337837215171000,11.522171142578125,-0.135711669921875,0.859375,-0.17486572265625
1783337837225143300,11.532143310546875,-0.1976318359375,0.869293212890625,-0.19427490234375
1783337837235116000,11.542115966796874,-0.2170562744140625,0.8814849853515625,-0.2158660888671875
1783337837245089000,11.552089111328126,-0.2117462158203125,0.9256439208984375,-0.1772308349609375
1783337837255062000,11.56206201171875,-0.2008819580078125,0.933197021484375,-0.1480560302734375
1783337837265035300,11.57203515625,-0.183349609375,0.8913421630859375,-0.1350860595703125
1783337837275007000,11.582007080078125,-0.165618896484375,0.8302764892578125,-0.0813751220703125
1783337837284980000,11.59197998046875,-0.14605712890625,0.773468017578125,-0.0322418212890625
1783337837294953200,11.601953125,-0.1185455322265625,0.742431640625,-0.007232666015625
1783337837304926200,11.61192626953125,-0.0836029052734375,0.7333984375,0.016387939453125
1783337837314899200,11.621899169921875,-0.076416015625,0.700653076171875,0.0563507080078125
1783337837324871200,11.63187109375,-0.0487060546875,0.685516357421875,0.0825958251953125
1783337837334844200,11.64184423828125,-0.0047607421875,0.6882781982421875,0.1140289306640625
1783337837344817200,11.651817138671875,0.037933349609375,0.6774444580078125,0.126800537109375
1783337837354790100,11.6617900390625,0.0771484375,0.6645050048828125,0.10223388671875
1783337837364763100,11.67176318359375,0.10968017578125,0.6520538330078125,0.0598297119140625
1783337837374735000,11.681735107421876,0.1361236572265625,0.673583984375,0.0543212890625
1783337837384708000,11.6917080078125,0.156341552734375,0.71514892578125,0.0492401123046875
1783337837394681000,11.70168115234375,0.203887939453125,0.7469482421875,-0.012115478515625
1783337837404654000,11.711654052734374,0.289642333984375,0.8126068115234375,-0.0657501220703125
1783337837414627000,11.721626953125,0.3701934814453125,0.896514892578125,-0.12469482421875
1783337837424599300,11.731599365234375,0.4219512939453125,0.9743499755859375,-0.192901611328125
1783337837434572000,11.741572021484375,0.43035888671875,1.04095458984375,-0.2770843505859375
1783337837444545000,11.751544921875,0.42596435546875,1.108734130859375,-0.3967742919921875
1783337837454518000,11.76151806640625,0.446807861328125,1.1915283203125,-0.548828125
1783337837464491000,11.771490966796875,0.4620208740234375,1.2890167236328125,-0.715667724609375
1783337837474463000,11.781462890625,0.4354705810546875,1.355712890625,-0.8630828857421875
1783337837484436000,11.79143603515625,0.3812103271484375,1.358428955078125,-0.92047119140625
1783337837494409000,11.801408935546876,0.3527984619140625,1.3042449951171875,-0.8872833251953125
1783337837504382200,11.81138232421875,0.3181610107421875,1.2050018310546875,-0.797332763671875
1783337837514355200,11.821355224609375,0.236907958984375,1.0980377197265625,-0.6585540771484375
1783337837524327000,11.831326904296875,0.1779022216796875,1.014617919921875,-0.512176513671875
1783337837534300200,11.841300048828124,0.156646728515625,0.9646759033203125,-0.4309234619140625
1783337837544273200,11.851273193359376,0.1688232421875,0.952728271484375,-0.431304931640625
1783337837554246100,11.86124609375,0.1869964599609375,0.98846435546875,-0.456573486328125
1783337837564219000,11.871218994140625,0.156768798828125,1.07147216796875,-0.4192047119140625
1783337837574191000,11.881191162109374,0.0251617431640625,1.18133544921875,-0.348724365234375
1783337837584164000,11.8911640625,-0.09417724609375,1.2861785888671875,-0.2790069580078125
1783337837594137000,11.90113720703125,-0.1350555419921875,1.386474609375,-0.2483978271484375
1783337837604110000,11.911110107421875,-0.1562957763671875,1.4633941650390625,-0.244781494140625
1783337837614083000,11.9210830078125,-0.1964263916015625,1.4437103271484375,-0.223388671875
1783337837624055000,11.931054931640626,-0.2518157958984375,1.3109588623046875,-0.1626434326171875
1783337837634028300,11.9410283203125,-0.2857208251953125,1.1114349365234375,-0.0672149658203125
1783337837644001000,11.9510009765625,-0.2987518310546875,0.9195404052734375,0.077117919921875
1783337837653974000,11.96097412109375,-0.279693603515625,0.7792205810546875,0.2133636474609375
1783337837663948000,11.970947998046874,-0.2519683837890625,0.6883087158203125,0.3214111328125
1783337837673920300,11.980920166015625,-0.2318572998046875,0.6200714111328125,0.376617431640625
1783337837683893200,11.990893310546875,-0.213104248046875,0.5890045166015625,0.3871002197265625
1783337837693866000,12.000865966796875,-0.1737213134765625,0.591552734375,0.38348388671875
1783337837703839000,12.0108388671875,-0.128753662109375,0.6100616455078125,0.344451904296875
1783337837713812200,12.020812255859376,-0.0973052978515625,0.6282501220703125,0.2904052734375
1783337837723784200,12.0307841796875,-0.0659332275390625,0.6948699951171875,0.2563629150390625
1783337837733757000,12.0407568359375,-0.059326171875,0.84381103515625,0.238372802734375
1783337837743730200,12.050730224609374,-0.0852508544921875,1.0186309814453125,0.219635009765625
1783337837753703200,12.060703125,-0.134063720703125,1.1596527099609375,0.1631927490234375
1783337837763676200,12.07067626953125,-0.180145263671875,1.236480712890625,0.093536376953125
1783337837773648100,12.080648193359375,-0.2005462646484375,1.23358154296875,0.053436279296875
1783337837783621000,12.09062109375,-0.2157440185546875,1.172119140625,0.0411529541015625
1783337837793594000,12.100593994140626,-0.22698974609375,1.081451416015625,0.0308380126953125
1783337837803567000,12.110567138671875,-0.235687255859375,1.001953125,0.010528564453125
1783337837813540000,12.1205400390625,-0.2399444580078125,0.9487457275390625,-0.0304718017578125
1783337837823512000,12.130511962890624,-0.2257232666015625,0.9319915771484375,-0.053131103515625
1783337837833485000,12.140485107421876,-0.20135498046875,0.932647705078125,-0.09783935546875
1783337837843458000,12.1504580078125,-0.1624298095703125,0.91937255859375,-0.1932220458984375
1783337837853431000,12.16043115234375,-0.1183319091796875,0.8938140869140625,-0.27130126953125
1783337837863404000,12.170404052734375,-0.072174072265625,0.8759307861328125,-0.3442535400390625
1783337837873376300,12.180376220703126,-0.0299224853515625,0.8786468505859375,-0.398345947265625
1783337837883349200,12.190349365234376,-0.0090484619140625,0.901885986328125,-0.4189453125
1783337837893322000,12.200322021484375,-0.0016326904296875,0.9335479736328125,-0.4103851318359375
1783337837903295000,12.210294921875,-0.001312255859375,0.9438018798828125,-0.3893890380859375
1783337837913268000,12.22026806640625,-0.001739501953125,0.930877685546875,-0.370147705078125
1783337837923240200,12.230240234375,-0.0067901611328125,0.912689208984375,-0.352691650390625
1783337837933213000,12.240212890625,-0.0261688232421875,0.9075469970703125,-0.3234100341796875
1783337837943186000,12.25018603515625,-0.0572357177734375,0.9120330810546875,-0.29156494140625
1783337837953159200,12.2601591796875,-0.0968780517578125,0.912811279296875,-0.2845916748046875
1783337837963131100,12.270131103515626,-0.1216583251953125,0.913055419921875,-0.2909698486328125
1783337837973104000,12.280104248046875,-0.13720703125,0.9181365966796875,-0.270660400390625
1783337837983077000,12.2900771484375,-0.1580657958984375,0.9285125732421875,-0.2339935302734375
1783337837993050000,12.300050048828124,-0.1755218505859375,0.93463134765625,-0.1937408447265625
1783337838003023000,12.310023193359376,-0.1750640869140625,0.9384765625,-0.15924072265625
1783337838012995000,12.3199951171875,-0.162322998046875,0.9549713134765625,-0.1288299560546875
1783337838022968000,12.329968017578125,-0.13787841796875,0.971710205078125,-0.101654052734375
1783337838032941000,12.339941162109374,-0.10302734375,0.9810638427734375,-0.0832672119140625
1783337838042914000,12.3499140625,-0.0701904296875,0.9859771728515625,-0.0699615478515625
1783337838052887300,12.35988720703125,-0.0399627685546875,0.98565673828125,-0.06390380859375
1783337838062859000,12.36985888671875,-0.0104217529296875,0.9817657470703125,-0.06658935546875
1783337838072832000,12.37983203125,0.0108489990234375,0.972625732421875,-0.073883056640625
1783337838082805200,12.38980517578125,0.0207366943359375,0.9588623046875,-0.0836944580078125
1783337838092778200,12.3997783203125,0.0190277099609375,0.949310302734375,-0.099090576171875
1783337838102751000,12.4097509765625,0.011444091796875,0.9466400146484375,-0.1199798583984375
1783337838112723200,12.41972314453125,-0.0003509521484375,0.953887939453125,-0.14404296875
1783337838122696200,12.4296962890625,-0.0213623046875,0.9706878662109375,-0.17120361328125
1783337838132669200,12.439669189453125,-0.0503997802734375,0.9996337890625,-0.201080322265625
1783337838142642000,12.449641845703125,-0.0738677978515625,1.0439605712890625,-0.23614501953125
1783337838152615200,12.459615234375,-0.0870819091796875,1.0886383056640625,-0.276275634765625
1783337838162587100,12.469587158203124,-0.096099853515625,1.1159210205078125,-0.3223419189453125
1783337838172560100,12.47956005859375,-0.1006622314453125,1.127838134765625,-0.3610076904296875
1783337838182533000,12.489533203125,-0.091217041015625,1.1292877197265625,-0.3805694580078125
1783337838192506000,12.499506103515625,-0.07379150390625,1.1266326904296875,-0.38348388671875
1783337838202478000,12.50947802734375,-0.0555877685546875,1.1320953369140625,-0.3728790283203125
1783337838212451000,12.519451171875,-0.039093017578125,1.1418609619140625,-0.354339599609375
1783337838222424000,12.529424072265625,-0.03082275390625,1.1594390869140625,-0.330291748046875
1783337838232397000,12.53939697265625,-0.0365142822265625,1.177154541015625,-0.29052734375
1783337838242370000,12.5493701171875,-0.042236328125,1.18743896484375,-0.25128173828125
1783337838252342000,12.559342041015626,-0.0325164794921875,1.1890869140625,-0.2353515625
1783337838262315000,12.56931494140625,-0.0191802978515625,1.1827850341796875,-0.2415618896484375
1783337838272288000,12.5792880859375,-0.011566162109375,1.1728668212890625,-0.25860595703125
1783337838282261200,12.58926123046875,0.001495361328125,1.1564788818359375,-0.2843017578125
1783337838292234200,12.599234130859376,0.022857666015625,1.1360626220703125,-0.3022613525390625
1783337838302206000,12.6092060546875,0.0478668212890625,1.1146087646484375,-0.3126068115234375
1783337838312179200,12.61917919921875,0.0720367431640625,1.091827392578125,-0.31658935546875
1783337838322152200,12.629152099609374,0.0815582275390625,1.0558319091796875,-0.2955169677734375
1783337838332125200,12.639125244140626,0.060272216796875,1.0087890625,-0.265625
1783337838342098000,12.649097900390625,0.0315399169921875,0.989776611328125,-0.2337799072265625
1783337838352070100,12.659070068359375,0.0497283935546875,1.0091552734375,-0.1634521484375
1783337838362043100,12.669043212890625,0.0901947021484375,1.0666046142578125,-0.087066650390625
1783337838372016000,12.67901611328125,0.08966064453125,1.13299560546875,-0.0094146728515625
1783337838381989000,12.688989013671875,0.0526885986328125,1.183135986328125,0.0552520751953125
1783337838391961000,12.698961181640625,-0.0035552978515625,1.199615478515625,0.1436004638671875
1783337838401934000,12.70893408203125,-0.04290771484375,1.2017974853515625,0.2368621826171875
1783337838411907000,12.718906982421874,-0.0780487060546875,1.1992340087890625,0.3090362548828125
1783337838421880000,12.728880126953126,-0.1362152099609375,1.1826019287109375,0.3317718505859375
1783337838431853000,12.73885302734375,-0.2099151611328125,1.17474365234375,0.2933807373046875
1783337838441825000,12.748824951171875,-0.295318603515625,1.176666259765625,0.2513580322265625
1783337838451798300,12.75879833984375,-0.3932342529296875,1.1610260009765625,0.2238922119140625
1783337838461771000,12.76877099609375,-0.43035888671875,1.11114501953125,0.1692047119140625
1783337838471744000,12.778743896484375,-0.384918212890625,1.041046142578125,0.0738372802734375
1783337838481717000,12.788717041015625,-0.190216064453125,0.9985809326171875,-0.032135009765625
1783337838491689200,12.798689208984374,0.1007080078125,0.9559173583984375,-0.2174530029296875
1783337838501662000,12.808661865234376,0.202911376953125,0.9322509765625,-0.39678955078125
1783337838511635000,12.818635009765625,0.131134033203125,0.9139251708984375,-0.428253173828125
1783337838521608200,12.828608154296875,0.069488525390625,0.894195556640625,-0.388336181640625
1783337838531581200,12.838581298828124,0.0324859619140625,0.886474609375,-0.3319244384765625
1783337838541553000,12.848552978515626,-0.0344696044921875,0.8830108642578125,-0.2953948974609375
1783337838551526100,12.858526123046875,-0.0994415283203125,0.8894500732421875,-0.2746124267578125
1783337838561499100,12.8684990234375,-0.15966796875,0.89947509765625,-0.25128173828125
1783337838571472100,12.87847216796875,-0.211639404296875,0.89898681640625,-0.25799560546875
1783337838581444000,12.888444091796876,-0.2410430908203125,0.8909149169921875,-0.2648468017578125
1783337838591417000,12.8984169921875,-0.2487640380859375,0.86761474609375,-0.2326202392578125
1783337838601390000,12.90839013671875,-0.2340087890625,0.8286590576171875,-0.161895751953125
1783337838611363000,12.918363037109375,-0.20465087890625,0.8105010986328125,-0.0718841552734375
1783337838621336000,12.928336181640624,-0.16912841796875,0.786895751953125,-0.016265869140625
1783337838631308000,12.93830810546875,-0.12530517578125,0.7512969970703125,0.01513671875
1783337838641281000,12.948281005859375,-0.085205078125,0.7307281494140625,0.0407257080078125
1783337838651254300,12.958254150390625,-0.07012939453125,0.725830078125,0.0696258544921875
