time,seconds_elapsed,z,y,x
1783337825773841200,0.080841064453125,0.19017893075942993,2.2471232414245605,-0.8076695203781128
1783337825783813000,0.090813232421875,0.17096476256847382,2.473629951477051,-1.0245720148086548
1783337825793786000,0.1007861328125,0.18271641433238983,2.666769027709961,-1.2443410158157349
1783337825803759000,0.110759033203125,0.2253195345401764,2.7799289226531982,-1.4328182935714722
1783337825813732000,0.120732177734375,0.296507328748703,2.779663562774658,-1.5487914085388184
1783337825823704000,0.1307041015625,0.3716212511062622,2.5953047275543213,-1.594460368156433
1783337825833677000,0.140677001953125,0.45376232266426086,2.3153116703033447,-1.5566527843475342
1783337825843650000,0.150650146484375,0.5274735689163208,2.089644432067871,-1.4367300271987915
1783337825853623000,0.160623046875,0.5362589955329895,1.8904614448547363,-1.260159969329834
1783337825863595000,0.170594970703125,0.46439996361732483,1.690560221672058,-1.0608961582183838
1783337825873568000,0.180568115234375,0.36639711260795593,1.4004530906677246,-0.8516308069229126
1783337825883541000,0.190541015625,0.26837149262428284,1.0057944059371948,-0.651347279548645
1783337825893514200,0.20051416015625,0.1949346959590912,0.5656490325927734,-0.46172991394996643
1783337825903487200,0.2104873046875,0.17285920679569244,0.2052982896566391,-0.2577855587005615
1783337825913459000,0.220458984375,0.201912060379982,-0.031077055260539055,-0.04692867025732994
1783337825923432200,0.23043212890625,0.2763993740081787,-0.150716632604599,0.1569802463054657
1783337825933405200,0.2404052734375,0.37809160351753235,-0.18207645416259766,0.34577006101608276
1783337825943378200,0.250378173828125,0.4866124987602234,-0.18365783989429474,0.5156397819519043
1783337825953350100,0.26035009765625,0.5803646445274353,-0.16553837060928345,0.66740483045578
1783337825963323100,0.2703232421875,0.629169225692749,-0.1571986824274063,0.79951012134552
1783337825973296000,0.280296142578125,0.6273205876350403,-0.1435098499059677,0.900048553943634
1783337825983269000,0.29026904296875,0.5685297250747681,-0.09775514900684357,0.9481473565101624
1783337825993242000,0.3002421875,0.44903355836868286,-0.08591730892658234,0.9202921986579895
1783337826003214000,0.310214111328125,0.2923438251018524,-0.1324067860841751,0.8365621566772461
1783337826013187000,0.32018701171875,0.16836006939411163,-0.1642228066921234,0.7284034490585327
1783337826023160000,0.33016015625,0.18216057121753693,-0.09396915882825851,0.6027171611785889
1783337826033133000,0.340133056640625,0.3532760739326477,0.025598866865038872,0.47252151370048523
1783337826043105000,0.35010498046875,0.5696733593940735,-0.04311814531683922,0.4385305345058441
1783337826053078300,0.360078369140625,0.7785660624504089,-0.3244042694568634,0.4276227355003357
1783337826063051000,0.370051025390625,0.781770646572113,-0.9721654057502747,0.481100857257843
1783337826073024000,0.38002392578125,0.7833016514778137,-1.7133644819259644,0.5179580450057983
1783337826082997000,0.3899970703125,0.8736347556114197,-2.1844513416290283,0.5346515774726868
1783337826092969200,0.39996923828125,1.0571630001068115,-2.187420129776001,0.5710083246231079
1783337826102942000,0.40994189453125,1.2705488204956055,-1.881737232208252,0.6117339134216309
1783337826112915000,0.4199150390625,1.4318805932998657,-1.4441324472427368,0.6415072679519653
1783337826122888200,0.42988818359375,1.4973530769348145,-1.085781216621399,0.6519268751144409
1783337826132861200,0.439861083984375,1.4337595701217651,-0.7808956503868103,0.6220734715461731
1783337826142833000,0.4498330078125,1.3115215301513672,-0.6334841251373291,0.5519084930419922
1783337826152806100,0.45980615234375,1.1754177808761597,-0.5197739005088806,0.43673965334892273
1783337826162779100,0.469779052734375,1.0499767065048218,-0.42281806468963623,0.3099585473537445
1783337826172752100,0.479752197265625,0.9758960008621216,-0.4424988031387329,0.19685675203800201
1783337826182724000,0.48972412109375,0.9502383470535278,-0.5344012379646301,0.1248731017112732
1783337826192697000,0.499697021484375,0.9506579041481018,-0.6978865265846252,0.08801010996103287
1783337826202670000,0.509670166015625,0.9365487098693848,-0.9556592106819153,0.07689913362264633
1783337826212643000,0.51964306640625,0.8414443135261536,-1.1814123392105103,0.12350736558437347
1783337826222616300,0.5296162109375,0.7296892404556274,-1.2866783142089844,0.20506587624549866
1783337826232588000,0.539588134765625,0.6250225305557251,-1.4950146675109863,0.2000158578157425
1783337826242561000,0.54956103515625,0.6081919074058533,-1.8591651916503906,0.13297930359840393
1783337826252534300,0.5595341796875,0.6316197514533997,-2.2144134044647217,0.0803627073764801
1783337826262507300,0.56950732421875,0.6316860914230347,-2.5013699531555176,0.05567413195967674
1783337826272480000,0.57947998046875,0.6601127982139587,-2.7369179725646973,0.046599216759204865
1783337826282452200,0.5894521484375,0.7649263143539429,-2.8783414363861084,0.02665666863322258
1783337826292425200,0.59942529296875,0.9836038947105408,-2.971054792404175,-0.014076920226216316
1783337826302398200,0.609398193359375,1.3187952041625977,-3.105853796005249,-0.060832176357507706
1783337826312371000,0.619370849609375,1.7478266954421997,-3.360386371612549,-0.09639495611190796
1783337826322343200,0.62934326171875,2.1451754570007324,-3.759592294692993,-0.09198982268571854
1783337826332316200,0.639316162109375,2.410796880722046,-4.165946960449219,-0.036557599902153015
1783337826342289200,0.6492890625,2.535754442214966,-4.558365345001221,0.023800015449523926
1783337826352262100,0.65926220703125,2.6644444465637207,-4.842713832855225,0.04207376018166542
1783337826362235100,0.669235107421875,2.841428279876709,-4.958364009857178,-0.058272816240787506
1783337826372207000,0.67920703125,3.0658657550811768,-5.093017578125,-0.2861262857913971
1783337826382180000,0.68918017578125,3.2930257320404053,-5.261473655700684,-0.5241071581840515
1783337826392153000,0.699153076171875,3.4068965911865234,-5.3853559494018555,-0.6651498079299927
1783337826402126000,0.7091259765625,3.452218532562256,-5.509645938873291,-0.7017035484313965
1783337826412099000,0.71909912109375,3.5452845096588135,-5.670232772827148,-0.6436330676078796
1783337826422071000,0.729071044921875,3.7726709842681885,-5.860877990722656,-0.5216994285583496
1783337826432044000,0.7390439453125,4.165891170501709,-5.969809055328369,-0.39770492911338806
1783337826442017000,0.74901708984375,4.585157871246338,-5.907742500305176,-0.27195873856544495
1783337826451990000,0.758989990234375,4.956667423248291,-5.658221244812012,-0.16363565623760223
1783337826461963300,0.76896337890625,5.154178142547607,-5.225833892822266,-0.0332891009747982
1783337826471935000,0.77893505859375,5.1715474128723145,-4.793501377105713,0.11780666559934616
1783337826481908000,0.788907958984375,5.106441497802734,-4.516461372375488,0.29423630237579346
1783337826491881200,0.798881103515625,4.983868598937988,-4.335129261016846,0.5781816840171814
1783337826501854200,0.808854248046875,4.955319881439209,-4.125324726104736,0.942303478717804
1783337826511827000,0.818826904296875,4.878307819366455,-3.58307147026062,1.28677237033844
1783337826521799200,0.828799072265625,4.539521217346191,-2.8548686504364014,1.5261937379837036
1783337826531772200,0.838772216796875,4.13433837890625,-2.3966898918151855,1.5959194898605347
1783337826541745200,0.8487451171875,3.8055319786071777,-2.1325833797454834,1.5703893899917603
1783337826551718000,0.8587177734375,3.551880121231079,-1.9336475133895874,1.53388249874115
1783337826561691100,0.868691162109375,3.372420310974121,-1.7263598442077637,1.4979026317596436
1783337826571663000,0.8786630859375,3.2835299968719482,-1.5324103832244873,1.4704804420471191
1783337826581636000,0.888635986328125,3.289198637008667,-1.3401261568069458,1.4624416828155518
1783337826591609000,0.898609130859375,3.28949236869812,-1.183911919593811,1.5149037837982178
1783337826601582000,0.90858203125,3.201709508895874,-1.1532847881317139,1.6200014352798462
1783337826611555000,0.91855517578125,3.0493574142456055,-1.231788992881775,1.726503849029541
1783337826621527300,0.92852734375,2.8487839698791504,-1.3798989057540894,1.7889293432235718
1783337826631500000,0.9385,2.658259868621826,-1.3908510208129883,1.8446842432022095
1783337826641473000,0.94847314453125,2.4552338123321533,-1.2750208377838135,1.8925329446792603
1783337826651446300,0.9584462890625,2.216587543487549,-1.1031618118286133,1.8675950765609741
1783337826661419300,0.968419189453125,2.0073206424713135,-0.9173269867897034,1.7185834646224976
1783337826671391500,0.9783916015625,1.8253310918807983,-0.6442145109176636,1.4769234657287598
1783337826681364200,0.9883642578125,1.7042979001998901,-0.3392481505870819,1.204781174659729
1783337826691337500,0.99833740234375,1.5746304988861084,-0.07102443277835846,1.0316754579544067
1783337826701310500,1.008310546875,1.4267200231552124,-0.023216430097818375,0.9676651954650879
1783337826711283500,1.018283447265625,1.227169394493103,-0.16560111939907074,1.0144901275634766
1783337826721255400,1.02825537109375,0.9581046104431152,-0.4340458810329437,1.0917226076126099
1783337826731228400,1.038228515625,0.7301613092422485,-0.698756217956543,1.1572940349578857
1783337826741201400,1.048201416015625,0.5347686409950256,-0.8287888169288635,1.2419925928115845
1783337826751174400,1.05817431640625,0.2773512601852417,-0.8849634528160095,1.279861569404602
1783337826761147400,1.0681474609375,-0.04353543370962143,-0.918176531791687,1.2075159549713135
1783337826771119400,1.078119384765625,-0.36462146043777466,-0.9206162691116333,1.0674214363098145
1783337826781092400,1.08809228515625,-0.7366594672203064,-0.9162204265594482,0.7748236656188965
1783337826791065300,1.0980654296875,-1.0456745624542236,-0.7736678123474121,0.37716925144195557
1783337826801038600,1.10803857421875,-1.287885069847107,-0.3846971392631531,-0.14904846251010895
1783337826811011300,1.11801123046875,-1.4899308681488037,0.14479927718639374,-0.7917283773422241
1783337826820983300,1.1279833984375,-1.619323968887329,0.6586394309997559,-1.3681433200836182
1783337826830956500,1.13795654296875,-1.7199628353118896,1.0393381118774414,-1.736351728439331
1783337826840929300,1.14792919921875,-1.7908902168273926,1.1235203742980957,-1.8991405963897705
1783337826850902300,1.15790234375,-1.8081251382827759,0.8344558477401733,-1.755212664604187
1783337826860875300,1.167875244140625,-1.7729042768478394,0.16713690757751465,-1.352574348449707
1783337826870847500,1.177847412109375,-1.4179093837738037,-0.830453634262085,-0.7129101157188416
1783337826880820200,1.1878203125,-0.8919973373413086,-1.9500118494033813,-0.2231832891702652
1783337826890793200,1.197793212890625,-0.41945600509643555,-2.8751893043518066,0.18011385202407837
1783337826900766500,1.207766357421875,-0.07631861418485641,-3.520189046859741,0.4211275279521942
1783337826910739500,1.217739501953125,0.3677723705768585,-3.5575459003448486,0.3647443354129791
1783337826920712400,1.22771240234375,0.5817272663116455,-3.1353719234466553,0.13124263286590576
1783337826930684400,1.237684326171875,0.579068124294281,-2.7146008014678955,-0.1863965094089508
1783337826940657400,1.247657470703125,0.5102472901344299,-2.571544647216797,-0.1975460946559906
1783337826950630400,1.25763037109375,0.41198986768722534,-2.491713285446167,0.1789158284664154
1783337826960603400,1.267603271484375,0.3790244460105896,-2.287062883377075,0.6190401911735535
1783337826970576400,1.277576416015625,0.41604816913604736,-1.8594789505004883,0.9912327527999878
1783337826980548400,1.28754833984375,0.4741804301738739,-1.243162751197815,1.2748870849609375
1783337826990521300,1.297521240234375,0.45922258496284485,-0.5899744033813477,1.4686119556427002
1783337827000494600,1.30749462890625,0.471686989068985,-0.2494325339794159,1.5398615598678589
1783337827010467300,1.31746728515625,0.5435878038406372,-0.3727095127105713,1.53325617313385
1783337827020440300,1.3274404296875,0.6855548024177551,-0.796377956867218,1.496415376663208
1783337827030412500,1.33741259765625,0.8244773745536804,-1.2857197523117065,1.4266716241836548
1783337827040385500,1.347385498046875,0.8801310658454895,-1.632953405380249,1.2753596305847168
1783337827050358300,1.357358154296875,0.7425692677497864,-1.726921796798706,1.0240427255630493
1783337827060331300,1.367331298828125,0.42354413866996765,-1.5592867136001587,0.6285897493362427
1783337827070304500,1.377304443359375,0.0272756889462471,-1.0957380533218384,0.1985546499490738
1783337827080276500,1.3872763671875,-0.35624560713768005,-0.3474024832248688,-0.11019468307495117
1783337827090249200,1.397249267578125,-0.7247633934020996,0.2680928111076355,-0.27964863181114197
1783337827100222500,1.407222412109375,-1.1033352613449097,0.46256932616233826,-0.31454962491989136
1783337827110195500,1.417195556640625,-1.3878883123397827,0.380831778049469,-0.08088754117488861
1783337827120168400,1.42716845703125,-1.487065315246582,0.42560988664627075,0.2677341103553772
1783337827130141400,1.437141357421875,-1.5687124729156494,0.30970120429992676,0.5353725552558899
1783337827140113400,1.447113525390625,-1.5101349353790283,0.009910759516060352,0.6147528886795044
1783337827150086400,1.45708642578125,-1.1175059080123901,-0.18611867725849152,0.5062430500984192
1783337827160059400,1.467059326171875,-0.7455981373786926,-0.15626676380634308,0.4129754602909088
1783337827170032400,1.477032470703125,-0.32899993658065796,-0.14119380712509155,0.42021745443344116
1783337827180005400,1.48700537109375,0.21359410881996155,-0.3868062496185303,0.3885311484336853
1783337827189977300,1.496977294921875,0.7588961124420166,-0.5515485405921936,0.32347917556762695
1783337827199950300,1.506950439453125,1.2204666137695312,-0.6530269384384155,0.28733423352241516
1783337827209923600,1.516923583984375,1.5271376371383667,-0.8927833437919617,0.13258586823940277
1783337827219896300,1.526896240234375,1.464789867401123,-1.2628381252288818,-0.13089770078659058
1783337827229869300,1.536869384765625,0.8097420334815979,-1.5914673805236816,-0.3576304316520691
1783337827239842300,1.54684228515625,-0.276909738779068,-1.8691344261169434,-0.5532047748565674
1783337827249814300,1.556814208984375,-1.3783611059188843,-1.8979301452636719,-0.7245615124702454
1783337827259787300,1.566787353515625,-1.9174917936325073,-1.8023806810379028,-0.9191158413887024
1783337827269760300,1.57676025390625,-1.564033031463623,-1.8741226196289062,-1.0781649351119995
1783337827279733500,1.5867333984375,-0.5422324538230896,-2.0166053771972656,-1.2289429903030396
1783337827289706500,1.59670654296875,0.6377261877059937,-1.7607169151306152,-1.1506717205047607
1783337827299678200,1.60667822265625,1.2298110723495483,-0.8528335690498352,-0.288553386926651
1783337827309651500,1.6166513671875,1.502998948097229,-0.20036903023719788,0.9668145775794983
1783337827319624400,1.62662451171875,1.6327342987060547,-0.03694307804107666,1.7598819732666016
1783337827329597400,1.636597412109375,1.7995833158493042,-0.2089148312807083,2.2799062728881836
1783337827339570200,1.646570068359375,2.027573585510254,-0.3760297894477844,2.67608380317688
1783337827349543400,1.65654345703125,2.355503797531128,-0.5834497809410095,3.0052452087402344
1783337827359515400,1.666515380859375,2.7732081413269043,-0.9991998672485352,3.1763346195220947
1783337827369488400,1.67648828125,3.106509208679199,-1.6442039012908936,3.1263833045959473
1783337827379461400,1.68646142578125,3.2837483882904053,-2.249691963195801,2.837724447250366
1783337827389434400,1.696434326171875,3.38090443611145,-2.5895185470581055,2.391749620437622
1783337827399407400,1.706407470703125,3.4804275035858154,-2.58449649810791,1.8491922616958618
1783337827409379600,1.716379638671875,3.482347011566162,-2.248041868209839,1.3299882411956787
1783337827419352300,1.726352294921875,3.3843541145324707,-1.6982251405715942,0.9638243913650513
1783337827429325300,1.7363251953125,3.156465530395508,-1.132312536239624,0.7967018485069275
1783337827439298300,1.74629833984375,2.7960052490234375,-0.6736969351768494,0.825419545173645
1783337827449271600,1.756271484375,2.306353807449341,-0.49592238664627075,1.0118048191070557
1783337827459244500,1.76624462890625,1.742648959159851,-0.5642183423042297,1.23594069480896
1783337827469216300,1.77621630859375,1.1690336465835571,-0.7776080369949341,1.412225604057312
1783337827479189500,1.786189453125,0.6890209317207336,-0.9699718952178955,1.49017333984375
1783337827489162500,1.79616259765625,0.31205061078071594,-1.163089394569397,1.4770315885543823
1783337827499135500,1.806135498046875,0.05592882260680199,-1.2561458349227905,1.3680322170257568
1783337827509108200,1.816108154296875,-0.07694225013256073,-1.2149189710617065,1.2185828685760498
1783337827519081500,1.82608154296875,-0.12443041056394577,-1.101848840713501,1.0652153491973877
1783337827529053400,1.836053466796875,-0.12137371301651001,-1.009428858757019,0.9142054915428162
1783337827539026400,1.8460263671875,-0.10185567289590836,-0.9595353603363037,0.8082036375999451
1783337827548999400,1.85599951171875,-0.08990149945020676,-0.93619704246521,0.7477225065231323
1783337827558972400,1.865972412109375,-0.08958777785301208,-0.9438714981079102,0.7158308625221252
1783337827568945400,1.8759453125,-0.08291958272457123,-0.9138005971908569,0.659990668296814
1783337827578917400,1.88591748046875,-0.07996027916669846,-0.8052834272384644,0.5901540517807007
1783337827588890400,1.895890380859375,-0.0956893116235733,-0.7294331789016724,0.5359315276145935
1783337827598863400,1.90586328125,-0.09339472651481628,-0.7442587018013,0.5049624443054199
1783337827608836400,1.91583642578125,-0.046476494520902634,-0.8470700979232788,0.5010164380073547
1783337827618809300,1.925809326171875,0.01236338447779417,-0.9363546967506409,0.49960386753082275
1783337827628782300,1.9357822265625,0.04242849349975586,-0.9889562726020813,0.4880518913269043
1783337827638754300,1.94575439453125,0.04355394467711449,-1.0351336002349854,0.4788682460784912
1783337827648727300,1.955727294921875,0.019661951810121536,-1.0888515710830688,0.48363587260246277
1783337827658700500,1.965700439453125,-0.001746667199768126,-1.0984258651733398,0.4800339639186859
1783337827668673500,1.975673583984375,-0.04870494082570076,-1.0795801877975464,0.47504013776779175
1783337827678646500,1.985646484375,-0.12589718401432037,-1.0649274587631226,0.472400426864624
1783337827688619300,1.995619384765625,-0.2366056740283966,-1.0634223222732544,0.4789252281188965
1783337827698591500,2.005591552734375,-0.3624586760997772,-1.0565615892410278,0.47900885343551636
1783337827708564500,2.015564453125,-0.44582897424697876,-0.9392297863960266,0.5107251405715942
1783337827718537500,2.025537353515625,-0.5570947527885437,-0.7535430192947388,0.5481998324394226
1783337827728510500,2.035510498046875,-0.6336048245429993,-0.4770161211490631,0.5752925276756287
1783337827738483500,2.0454833984375,-0.6424114108085632,-0.2050333321094513,0.6037907600402832
1783337827748456400,2.05545654296875,-0.5320687294006348,-0.010512851178646088,0.6238457560539246
1783337827758428700,2.0654287109375,-0.2922515869140625,0.09600213915109634,0.6062268018722534
1783337827768401400,2.0754013671875,-0.12845590710639954,0.07745641469955444,0.638769805431366
1783337827778374400,2.08537451171875,-0.18478575348854065,0.0799480676651001,0.7023090720176697
1783337827788347400,2.095347412109375,-0.17725710570812225,0.2298227846622467,0.7791599631309509
1783337827798320600,2.105320556640625,-0.37662187218666077,0.368847519159317,0.8949699401855469
1783337827808293600,2.115293701171875,0.32008635997772217,0.7449964880943298,0.8310673832893372
1783337827818265300,2.125265380859375,1.0603394508361816,1.0298786163330078,0.645182192325592
1783337827828238600,2.135238525390625,1.5124889612197876,1.10142183303833,0.47856462001800537
1783337827838211600,2.145211669921875,1.6849381923675537,0.7616520524024963,0.4599107801914215
1783337827848184600,2.1551845703125,1.6845462322235107,0.2731107771396637,0.5682852864265442
1783337827858157300,2.1651572265625,1.6148556470870972,-0.16995002329349518,0.7139554023742676
1783337827868129500,2.175129638671875,1.5108084678649902,-0.5413568019866943,0.8685577511787415
1783337827878102500,2.1851025390625,1.3867230415344238,-0.8225402235984802,0.9545429348945618
1783337827888075500,2.195075439453125,1.2289844751358032,-0.9595330357551575,0.9300062656402588
1783337827898048500,2.205048583984375,1.0676448345184326,-0.9647086262702942,0.8395653367042542
1783337827908021500,2.215021484375,1.0016300678253174,-0.7144042253494263,0.8439685702323914
1783337827917994500,2.224994384765625,0.9692859649658203,-0.27738454937934875,0.8819710612297058
1783337827927966500,2.234966552734375,0.9631175398826599,0.3108760416507721,0.9181724786758423
1783337827937939500,2.244939453125,1.105668544769287,0.8172665238380432,0.8005965948104858
1783337827947912400,2.254912353515625,1.2674787044525146,1.214553952217102,0.555724024772644
1783337827957885400,2.264885498046875,1.1908317804336548,1.4080393314361572,0.3219115138053894
1783337827967858400,2.2748583984375,0.8097431063652039,1.119792103767395,0.262209415435791
1783337827977831400,2.28483154296875,0.43231940269470215,0.494308203458786,0.37081632018089294
1783337827987804400,2.294804443359375,0.28056174516677856,-0.14297346770763397,0.4940318465232849
1783337827997776400,2.3047763671875,0.2751739025115967,-0.6061000823974609,0.501190721988678
1783337828007749600,2.31474951171875,0.29710015654563904,-0.8498440384864807,0.39812758564949036
1783337828017722400,2.324722412109375,0.28514790534973145,-0.9053693413734436,0.2388439178466797
1783337828027695400,2.3346953125,0.25607091188430786,-0.8502316474914551,0.08669239282608032
1783337828037668400,2.34466845703125,0.26508358120918274,-0.7244380116462708,-0.006637291517108679
1783337828047641600,2.3546416015625,0.2811848223209381,-0.5405080914497375,-0.034857142716646194
1783337828057613300,2.36461328125,0.2674112319946289,-0.3430163562297821,0.023634130135178566
1783337828067586300,2.37458642578125,0.1962231546640396,-0.17862045764923096,0.18299676477909088
1783337828077559600,2.3845595703125,0.11601753532886505,-0.09686807543039322,0.41364192962646484
1783337828087532500,2.394532470703125,0.10418011993169785,-0.032589737325906754,0.6515271067619324
1783337828097505500,2.404505615234375,0.15062910318374634,0.13593029975891113,0.7868580222129822
1783337828107478300,2.414478271484375,0.1945413053035736,0.31211307644844055,0.8154259920120239
1783337828117450500,2.424450439453125,0.2136545479297638,0.4280140995979309,0.7618306875228882
1783337828127423500,2.434423583984375,0.1995421200990677,0.47153761982917786,0.639202892780304
1783337828137396500,2.444396484375,0.15147818624973297,0.4369839131832123,0.4788387715816498
1783337828147369500,2.454369384765625,0.08445785939693451,0.3228881061077118,0.2969669699668884
1783337828157342500,2.464342529296875,0.0304351057857275,0.16903595626354218,0.13092635571956635
1783337828167315500,2.4743154296875,0.010828154161572456,0.04376915469765663,0.011218937113881111
1783337828177287700,2.48428759765625,0.012370657175779343,-0.02183435671031475,-0.03576428443193436
1783337828187260400,2.494260498046875,0.01966472901403904,-0.059495143592357635,-0.00553726963698864
1783337828197233400,2.5042333984375,0.0400184690952301,-0.09451384842395782,0.09352699667215347
1783337828207206400,2.514206298828125,0.07199198752641678,-0.12076184153556824,0.2222171127796173
1783337828217179600,2.5241796875,0.11245658993721008,-0.14081251621246338,0.343319296836853
1783337828227152600,2.534152587890625,0.13568110764026642,-0.1791009157896042,0.4374745786190033
1783337828237124400,2.544124267578125,0.15603405237197876,-0.23254789412021637,0.5017496943473816
1783337828247097600,2.55409765625,0.17755228281021118,-0.283469021320343,0.5497564077377319
1783337828257070600,2.564070556640625,0.20653466880321503,-0.30025917291641235,0.5943089723587036
1783337828267043600,2.574043701171875,0.2282569408416748,-0.2599313259124756,0.6437184810638428
1783337828277016300,2.584016357421875,0.23605121672153473,-0.17454266548156738,0.6978704333305359
1783337828286989600,2.593989501953125,0.23463360965251923,-0.06508640944957733,0.7533477544784546
1783337828296961500,2.60396142578125,0.23400749266147614,0.05044578015804291,0.7975418567657471
1783337828306934300,2.613934326171875,0.2445288896560669,0.16345539689064026,0.8055245280265808
1783337828316907500,2.623907470703125,0.25945860147476196,0.26014411449432373,0.7760899066925049
1783337828326880500,2.633880615234375,0.27012717723846436,0.33335307240486145,0.7083286643028259
1783337828336853500,2.643853515625,0.27185532450675964,0.3533771336078644,0.6241410374641418
1783337828346826500,2.653826416015625,0.2669981122016907,0.31900447607040405,0.5388150215148926
1783337828356798500,2.663798583984375,0.25573480129241943,0.2448040097951889,0.45437365770339966
1783337828366771500,2.673771484375,0.24190926551818848,0.1533299684524536,0.38022592663764954
1783337828376744400,2.683744384765625,0.2354963719844818,0.06490663439035416,0.31621336936950684
1783337828386717400,2.693717529296875,0.23313571512699127,-0.01476074755191803,0.2697877585887909
1783337828396690400,2.7036904296875,0.2340790182352066,-0.07311753183603287,0.24014198780059814
1783337828406663400,2.713663330078125,0.23246432840824127,-0.10871028900146484,0.22164975106716156
1783337828416636400,2.723636474609375,0.22871646285057068,-0.12091901898384094,0.21465042233467102
1783337828426608600,2.733608642578125,0.2295125275850296,-0.12352608144283295,0.21134264767169952
1783337828436581400,2.743581298828125,0.2316928505897522,-0.10968083143234253,0.20450976490974426
1783337828446554400,2.753554443359375,0.24286653101444244,-0.07801686972379684,0.18490749597549438
1783337828456527400,2.76352734375,0.25658926367759705,-0.03606276214122772,0.16979938745498657
1783337828466500600,2.77350048828125,0.25780147314071655,0.018923655152320862,0.17559249699115753
1783337828476473600,2.7834736328125,0.24206459522247314,0.11821295320987701,0.2195010930299759
1783337828486445300,2.7934453125,0.21150487661361694,0.3007378876209259,0.272430419921875
1783337828496418600,2.80341845703125,0.17755356431007385,0.5324342250823975,0.295328289270401
1783337828506391600,2.8133916015625,0.14290550351142883,0.720613420009613,0.2632051110267639
1783337828516364500,2.823364501953125,0.10189174860715866,0.8195673823356628,0.17823508381843567
1783337828526337300,2.833337158203125,0.06244930252432823,0.7914313673973083,0.053951818495988846
1783337828536310500,2.843310546875,0.026919269934296608,0.6275430917739868,-0.08137378096580505
1783337828546282500,2.853282470703125,-0.03189738094806671,0.37206894159317017,-0.20868685841560364
1783337828556255500,2.86325537109375,-0.10803156346082687,0.09301893413066864,-0.3451208770275116
1783337828566228500,2.873228515625,-0.2086711823940277,-0.13879884779453278,-0.49555984139442444
1783337828576201500,2.883201416015625,-0.3494799733161926,-0.2956094741821289,-0.6594403982162476
1783337828586174500,2.893174560546875,-0.5252294540405273,-0.3613186776638031,-0.8188810348510742
1783337828596147500,2.9031474609375,-0.7210572957992554,-0.34549152851104736,-0.9804680347442627
1783337828606119400,2.913119384765625,-0.9170749187469482,-0.2986774444580078,-1.1510212421417236
1783337828616092400,2.923092529296875,-1.1101964712142944,-0.20848524570465088,-1.3256977796554565
1783337828626065400,2.9330654296875,-1.2858200073242188,-0.09805060923099518,-1.50535249710083
1783337828636038700,2.94303857421875,-1.450106143951416,0.007157302461564541,-1.6826319694519043
1783337828646011600,2.95301171875,-1.5530368089675903,0.16512726247310638,-1.8835854530334473
1783337828655984400,2.962984375,-1.5663198232650757,0.4035278558731079,-2.1093947887420654
1783337828665957400,2.972957275390625,-1.5118361711502075,0.6544737219810486,-2.280543804168701
1783337828675929300,2.982929443359375,-1.42131507396698,0.8903802633285522,-2.382107973098755
1783337828685902300,2.99290234375,-1.2777960300445557,1.1607611179351807,-2.4442691802978516
1783337828695875300,3.002875244140625,-1.0814920663833618,1.417933464050293,-2.4404454231262207
1783337828705848600,3.0128486328125,-0.8489442467689514,1.658521056175232,-2.3819830417633057
1783337828715821300,3.0228212890625,-0.5569630265235901,1.9007036685943604,-2.2412912845611572
1783337828725794300,3.032794189453125,-0.24368688464164734,2.14559006690979,-2.0070605278015137
1783337828735766500,3.0427666015625,0.034465644508600235,2.282547950744629,-1.6548787355422974
1783337828745739500,3.052739501953125,0.17214396595954895,2.0545654296875,-1.154708981513977
1783337828755712300,3.062712158203125,0.12252527475357056,1.3367270231246948,-0.5916751027107239
1783337828765685200,3.072685302734375,-0.06515631079673767,0.48038527369499207,-0.1508641242980957
1783337828775658500,3.082658447265625,-0.3121967017650604,-0.47770529985427856,0.14669592678546906
1783337828785631500,3.092631591796875,-0.5760414600372314,-1.3566324710845947,0.14271730184555054
1783337828795604200,3.102604248046875,-0.873589277267456,-1.8031940460205078,-0.10206953436136246
1783337828805576400,3.112576416015625,-1.166259765625,-1.7859114408493042,-0.441680908203125
1783337828815549400,3.122549560546875,-1.349161982536316,-1.691859483718872,-0.6455706357955933
1783337828825522400,3.1325224609375,-1.4328341484069824,-1.7901639938354492,-0.585589587688446
1783337828835495200,3.1424951171875,-1.4509053230285645,-1.9331212043762207,-0.3705161511898041
1783337828845468200,3.15246826171875,-1.411557912826538,-2.11165452003479,-0.12567166984081268
1783337828855441400,3.16244140625,-1.2965681552886963,-2.369297981262207,0.08236009627580643
1783337828865413400,3.172413330078125,-1.1105026006698608,-2.674452543258667,0.230722114443779
1783337828875386000,3.18238623046875,-0.8509604334831238,-2.9596548080444336,0.3247237205505371
1783337828885359400,3.192359375,-0.5789578557014465,-3.077885627746582,0.37379878759384155
1783337828895332400,3.202332275390625,-0.38867366313934326,-3.026171922683716,0.41908958554267883
1783337828905305300,3.212305419921875,-0.2778189778327942,-2.97624135017395,0.48177093267440796
1783337828915278300,3.2222783203125,-0.2151273936033249,-2.8783347606658936,0.5299984216690063
1783337828925251300,3.232251220703125,-0.15307776629924774,-2.6910133361816406,0.5354756712913513
1783337828935223300,3.242223388671875,-0.0768977701663971,-2.519038438796997,0.4839005768299103
1783337828945196300,3.2521962890625,-0.014009588398039341,-2.4412682056427,0.40377286076545715
1783337828955169500,3.26216943359375,0.028898730874061584,-2.375535726547241,0.3147987723350525
1783337828965142300,3.272142333984375,0.09097263962030411,-2.293267250061035,0.26659610867500305
1783337828975115300,3.282115234375,0.1499299705028534,-2.2054216861724854,0.26173558831214905
1783337828985088300,3.292088134765625,0.19537176191806793,-2.0822558403015137,0.2841013967990875
1783337828995060500,3.302060546875,0.23594129085540771,-1.8848806619644165,0.3273923993110657
1783337829005033200,3.312033203125,0.2154034823179245,-1.5899693965911865,0.3884931802749634
1783337829015006200,3.322006103515625,0.1601913571357727,-1.1872501373291016,0.46585774421691895
1783337829024979500,3.3319794921875,0.11476291716098785,-0.6973192095756531,0.5436463356018066
1783337829034952400,3.341952392578125,0.040460459887981415,-0.21405372023582458,0.6129337549209595
1783337829044925400,3.351925537109375,0.033272579312324524,0.06276494264602661,0.6501173377037048
1783337829054898200,3.361898193359375,0.1181829422712326,0.18362531065940857,0.6434562802314758
1783337829064870400,3.371870361328125,0.21548840403556824,0.22878338396549225,0.6174330711364746
1783337829074843400,3.381843505859375,0.24879390001296997,0.2893873453140259,0.5903626084327698
1783337829084816400,3.39181640625,0.19805662333965302,0.3550974428653717,0.5635129809379578
1783337829094789400,3.401789306640625,0.08908646553754807,0.43346601724624634,0.5311031341552734
1783337829104762400,3.411762451171875,-0.07091901451349258,0.5633038878440857,0.4761326313018799
1783337829114735400,3.4217353515625,-0.2830219566822052,0.7903282642364502,0.37929075956344604
1783337829124708400,3.431708251953125,-0.5269464254379272,1.129101276397705,0.23469914495944977
1783337829134680300,3.441680419921875,-0.7644470930099487,1.481466293334961,0.08319271355867386
1783337829144653300,3.4516533203125,-0.9099907279014587,1.5490942001342773,-0.012424934655427933
1783337829154626300,3.461626220703125,-0.9037109613418579,1.202678918838501,-0.007887707091867924
1783337829164599300,3.471599365234375,-0.7968044877052307,0.6579838395118713,0.1315557211637497
1783337829174572300,3.481572265625,-0.5484088063240051,0.18358245491981506,0.35110488533973694
1783337829184545300,3.491545166015625,-0.13921016454696655,-0.08050189912319183,0.5613959431648254
1783337829194517200,3.501517333984375,0.2899166941642761,-0.21348153054714203,0.7146539688110352
1783337829204490500,3.511490478515625,0.5645712018013,-0.30627793073654175,0.7989629507064819
1783337829214463200,3.521463134765625,0.7360782027244568,-0.4344968795776367,0.8212733268737793
1783337829224436200,3.531436279296875,0.8575146794319153,-0.5475632548332214,0.784509003162384
1783337829234409200,3.5414091796875,0.9533826112747192,-0.6373964548110962,0.7198165655136108
1783337829244382500,3.551382568359375,1.0530024766921997,-0.7174217700958252,0.6464892029762268
1783337829254355500,3.56135546875,1.131429672241211,-0.826744556427002,0.5660756230354309
1783337829264327200,3.5713271484375,1.1089398860931396,-0.9232005476951599,0.4623393714427948
1783337829274300400,3.581300537109375,0.9608381986618042,-0.9253579378128052,0.31905224919319153
1783337829284273400,3.5912734375,0.7346173524856567,-0.7786651849746704,0.17873968183994293
1783337829294246400,3.601246337890625,0.5016559958457947,-0.509124755859375,0.13059373199939728
1783337829304219100,3.61121923828125,0.31981906294822693,-0.15161672234535217,0.1909715086221695
1783337829314192400,3.6211923828125,0.21840082108974457,0.2045895904302597,0.35461902618408203
1783337829324164400,3.631164306640625,0.2237769365310669,0.48367348313331604,0.5729893445968628
1783337829334137300,3.641137451171875,0.32291123270988464,0.6376556158065796,0.796078622341156
1783337829344110300,3.6511103515625,0.4275621473789215,0.6802639961242676,0.9570363759994507
1783337829354083300,3.661083251953125,0.488237202167511,0.6261677145957947,0.9943576455116272
1783337829364056300,3.671056396484375,0.47471415996551514,0.4991307258605957,0.9175487756729126
1783337829374029300,3.681029296875,0.4141000807285309,0.32208991050720215,0.7590702176094055
1783337829384002600,3.69100244140625,0.42618778347969055,0.07456376403570175,0.5489686727523804
1783337829393974300,3.700974365234375,0.523684024810791,-0.2817362844944,0.3482861816883087
1783337829403947300,3.710947265625,0.6253917813301086,-0.7966057658195496,0.16330872476100922
1783337829413920500,3.72092041015625,0.6528828144073486,-1.4514702558517456,0.016868960112333298
1783337829423893500,3.7308935546875,0.5795009136199951,-2.0200583934783936,-0.07438705116510391
1783337829433866200,3.7408662109375,0.4813951253890991,-2.328266143798828,-0.10801025480031967
1783337829443839200,3.750839111328125,0.42714643478393555,-2.3655169010162354,-0.10045773535966873
1783337829453812500,3.7608125,0.35079920291900635,-2.152421712875366,-0.06089860945940018
1783337829463784400,3.770784423828125,0.2507065534591675,-1.7605358362197876,-0.0026009399443864822
1783337829473757200,3.780757080078125,0.16455276310443878,-1.2673258781433105,0.0764632523059845
1783337829483730400,3.79073046875,0.10393042117357254,-0.7027607560157776,0.16537395119667053
1783337829493703400,3.800703369140625,0.05524810403585434,-0.1042182445526123,0.26538097858428955
1783337829503676400,3.810676513671875,0.008473112247884274,0.4625570476055145,0.4020519554615021
1783337829513649400,3.8206494140625,-0.025131186470389366,0.9869771003723145,0.6104254126548767
1783337829523622400,3.830622314453125,-0.03816448152065277,1.4665831327438354,0.8730118870735168
1783337829533594400,3.840594482421875,-0.008409782312810421,1.8717477321624756,1.1320993900299072
1783337829543567400,3.8505673828125,0.06530087441205978,2.1659910678863525,1.3051024675369263
1783337829553540400,3.860540283203125,0.15332233905792236,2.324437379837036,1.3581947088241577
1783337829563513300,3.870513427734375,0.19226522743701935,2.3431973457336426,1.288437843322754
1783337829573486300,3.880486328125,0.16739849746227264,2.195157527923584,1.1072717905044556
1783337829583459300,3.890459228515625,0.08570252358913422,1.87046217918396,0.8475332260131836
1783337829593431300,3.900431396484375,-0.0067741465754806995,1.391221046447754,0.5542513132095337
1783337829603404300,3.910404296875,-0.07102914154529572,0.815825879573822,0.2769332230091095
1783337829613377300,3.920377197265625,-0.11127296835184097,0.2935067415237427,0.08083482831716537
1783337829623350300,3.930350341796875,-0.11752699315547943,-0.09462205320596695,-0.015377722680568695
1783337829633323500,3.940323486328125,-0.08631687611341476,-0.360422819852829,-0.02810869738459587
1783337829643296300,3.950296142578125,-0.03940827399492264,-0.5330525040626526,0.003873396199196577
1783337829653269000,3.96026904296875,0.0009066586499102414,-0.6285920739173889,0.04950319975614548
1783337829663241000,3.970240966796875,0.018057571724057198,-0.6582262516021729,0.09712692350149155
1783337829673214000,3.9802138671875,0.0413125604391098,-0.6154628396034241,0.13750655949115753
1783337829683187000,3.99018701171875,0.08600790053606033,-0.5041566491127014,0.18389469385147095
1783337829693160000,4.000159912109375,0.1369432508945465,-0.32280394434928894,0.240603506565094
1783337829703133000,4.0101328125,0.1787538230419159,-0.0952141210436821,0.3004024028778076
1783337829713106000,4.02010595703125,0.21197515726089478,0.16286829113960266,0.36410626769065857
1783337829723079000,4.030078857421875,0.2531912326812744,0.4029843211174011,0.44109514355659485
1783337829733051100,4.040051025390625,0.29702258110046387,0.5710918307304382,0.5324593782424927
1783337829743023900,4.05002392578125,0.3331248164176941,0.649352490901947,0.6217067241668701
1783337829752996900,4.059996826171875,0.3643690049648285,0.6649953722953796,0.6886759400367737
1783337829762969900,4.069969970703125,0.3890056610107422,0.6402289867401123,0.724145233631134
1783337829772943000,4.079943115234375,0.3984617590904236,0.5831567049026489,0.731011688709259
1783337829782916000,4.089916015625,0.3895193934440613,0.5098152756690979,0.7092411518096924
1783337829792887800,4.0998876953125,0.3697321116924286,0.44047242403030396,0.6746304631233215
1783337829802861000,4.109861083984375,0.35000550746917725,0.383638858795166,0.6326221823692322
1783337829812834000,4.119833984375,0.32908424735069275,0.34627339243888855,0.5941328406333923
1783337829822807000,4.12980712890625,0.3259272575378418,0.3166131377220154,0.5559746623039246
1783337829832779800,4.13977978515625,0.3517356812953949,0.28377875685691833,0.5094841718673706
1783337829842753000,4.1497529296875,0.38272303342819214,0.2509065866470337,0.4574313163757324
1783337829852726000,4.15972607421875,0.3885963559150696,0.21202178299427032,0.40564587712287903
1783337829862698000,4.169697998046875,0.36902904510498047,0.1630464643239975,0.3567180037498474
1783337829872671000,4.1796708984375,0.33330753445625305,0.1137942373752594,0.31635087728500366
1783337829882644000,4.18964404296875,0.28943803906440735,0.07218422740697861,0.2848253548145294
1783337829892617000,4.199616943359375,0.23143784701824188,0.042929667979478836,0.25829336047172546
1783337829902590000,4.20958984375,0.1657160520553589,0.040143027901649475,0.240279883146286
1783337829912563200,4.219563232421875,0.08839143067598343,0.09708593785762787,0.2102663218975067
1783337829922536000,4.229535888671875,-0.001379123074002564,0.23249317705631256,0.15580247342586517
1783337829932508000,4.2395078125,-0.08348091691732407,0.42717692255973816,0.061825916171073914
1783337829942481200,4.249481201171875,-0.137144073843956,0.6180302500724792,-0.07930604368448257
1783337829952454100,4.2594541015625,-0.16655762493610382,0.7281532883644104,-0.24198338389396667
1783337829962427000,4.269427001953125,-0.2051563709974289,0.7014126181602478,-0.38900890946388245
1783337829972399900,4.27939990234375,-0.26885175704956055,0.5471804738044739,-0.4987303614616394
1783337829982373000,4.289373046875,-0.36236080527305603,0.30455437302589417,-0.5782775282859802
1783337829992346000,4.29934619140625,-0.4769100248813629,0.04229426011443138,-0.6407235860824585
1783337830002317800,4.30931787109375,-0.6098827719688416,-0.17371350526809692,-0.6999831795692444
1783337830012291000,4.319291015625,-0.7560567259788513,-0.304946631193161,-0.792286217212677
1783337830022264000,4.32926416015625,-0.9094269275665283,-0.349647581577301,-0.9209192395210266
1783337830032237000,4.339237060546875,-1.046036720275879,-0.2999231815338135,-1.0694903135299683
1783337830042209800,4.349209716796875,-1.1527472734451294,-0.17946994304656982,-1.225093126296997
1783337830052183000,4.35918310546875,-1.2158002853393555,-0.023191118612885475,-1.3679478168487549
1783337830062155000,4.369155029296875,-1.2358680963516235,0.1959538608789444,-1.485697865486145
1783337830072128000,4.3791279296875,-1.2261449098587036,0.4548296332359314,-1.5718748569488525
1783337830082101000,4.38910107421875,-1.170433521270752,0.6870425343513489,-1.6269499063491821
1783337830092074000,4.399073974609375,-1.100715160369873,0.9943574666976929,-1.7221126556396484
1783337830102047000,4.409046875,-1.0439250469207764,1.3441739082336426,-1.8451637029647827
1783337830112020000,4.41902001953125,-0.9736791253089905,1.6478337049484253,-1.9646998643875122
1783337830121993000,4.428992919921875,-0.8705107569694519,1.8427003622055054,-2.04229998588562
1783337830131965000,4.43896484375,-0.7569490671157837,1.943808913230896,-2.0682573318481445
1783337830141938000,4.44893798828125,-0.6549866199493408,1.9572532176971436,-2.0283093452453613
1783337830151911000,4.458910888671875,-0.5723897218704224,1.8825773000717163,-1.916146159172058
1783337830161884200,4.46888427734375,-0.5192136168479919,1.688811182975769,-1.7154083251953125
1783337830171857000,4.47885693359375,-0.49057725071907043,1.2398182153701782,-1.3861985206604004
1783337830181830000,4.488829833984375,-0.47226452827453613,0.6012320518493652,-0.9754732847213745
1783337830191803000,4.498802978515625,-0.4632135033607483,0.042463269084692,-0.6292120218276978
1783337830201775000,4.508775146484375,-0.4686538577079773,-0.386540025472641,-0.3674086928367615
1783337830211747800,4.518747802734375,-0.5426093339920044,-0.702621579170227,-0.19951501488685608
1783337830221720800,4.528720947265625,-0.7155725359916687,-0.8442195653915405,-0.1964283287525177
1783337830231694000,4.538694091796875,-0.9748640060424805,-0.7778530716896057,-0.3144487142562866
1783337830241667000,4.5486669921875,-1.2423295974731445,-0.6509461998939514,-0.4134904146194458
1783337830251640000,4.55864013671875,-1.3868454694747925,-0.6174673438072205,-0.38580313324928284
1783337830261612800,4.56861279296875,-1.4118738174438477,-0.7634699940681458,-0.27444371581077576
1783337830271585000,4.5785849609375,-1.318693995475769,-1.0302324295043945,-0.15606701374053955
1783337830281558000,4.58855810546875,-1.1489534378051758,-1.3926588296890259,-0.06521272659301758
1783337830291531000,4.598531005859375,-0.9505813717842102,-1.7482444047927856,0.020982608199119568
1783337830301504000,4.60850390625,-0.7711063027381897,-2.007110595703125,0.10075727105140686
1783337830311477000,4.61847705078125,-0.6175341010093689,-2.210603952407837,0.17955593764781952
1783337830321450000,4.628449951171875,-0.49248379468917847,-2.3440780639648438,0.22710581123828888
1783337830331423000,4.638423095703125,-0.37794071435928345,-2.328488826751709,0.21477670967578888
1783337830341395000,4.64839501953125,-0.2912631034851074,-2.15826153755188,0.17659389972686768
1783337830351368000,4.658367919921875,-0.24229368567466736,-2.0091934204101562,0.1396995335817337
1783337830361341000,4.6683408203125,-0.18550805747509003,-1.9027724266052246,0.10123703628778458
1783337830371314200,4.678314208984375,-0.10904763638973236,-1.766688346862793,0.08170647919178009
1783337830381287000,4.688286865234375,-0.03550582379102707,-1.600249171257019,0.11908621340990067
1783337830391260000,4.698260009765625,0.011958361603319645,-1.4229828119277954,0.21152986586093903
1783337830401232100,4.708232177734375,0.0696781799197197,-1.2098759412765503,0.31420791149139404
1783337830411205000,4.718205078125,0.13755789399147034,-0.9666147828102112,0.4098271131515503
1783337830421177900,4.728177734375,0.18616321682929993,-0.7303990721702576,0.4967544972896576
1783337830431150800,4.73815087890625,0.2351858913898468,-0.5316119194030762,0.5577036142349243
1783337830441123800,4.748123779296875,0.3086962401866913,-0.3153693675994873,0.5846035480499268
1783337830451097000,4.75809716796875,0.39088937640190125,-0.09612223505973816,0.5782343149185181
1783337830461070000,4.768070068359375,0.43549737334251404,0.0775989443063736,0.5299237966537476
1783337830471041800,4.778041748046875,0.45589372515678406,0.14281043410301208,0.4202207326889038
1783337830481015000,4.78801513671875,0.4588034451007843,0.08455241471529007,0.2774438261985779
1783337830490988000,4.797988037109375,0.3955190181732178,0.0077852047979831696,0.14482878148555756
1783337830500961000,4.8079609375,0.2468196451663971,0.011990453116595745,0.07823871821165085
1783337830510933800,4.817933837890625,0.03395877406001091,0.07747332006692886,0.09832720458507538
1783337830520907000,4.827906982421875,-0.2031964510679245,0.2242189347743988,0.16430720686912537
1783337830530880000,4.8378798828125,-0.4400444030761719,0.46970272064208984,0.1933860033750534
1783337830540852000,4.84785205078125,-0.6310703158378601,0.7843082547187805,0.1269790083169937
1783337830550825000,4.857824951171875,-0.7923188209533691,1.1023427248001099,-0.014479056932032108
1783337830560798000,4.8677978515625,-0.8788442611694336,1.2555474042892456,-0.14028364419937134
1783337830570771000,4.87777099609375,-0.8249021768569946,1.1400032043457031,-0.13230614364147186
1783337830580744000,4.887743896484375,-0.605083703994751,0.7597023844718933,0.03448610007762909
1783337830590717200,4.89771728515625,-0.2524404227733612,0.2828950881958008,0.28416675329208374
1783337830600690000,4.90768994140625,0.1598106175661087,-0.1181216835975647,0.5298938751220703
1783337830610662000,4.917661865234375,0.44998013973236084,-0.3214007616043091,0.7325034141540527
1783337830620635100,4.92763525390625,0.653484046459198,-0.4214213490486145,0.8690215349197388
1783337830630608100,4.937608154296875,0.8067881464958191,-0.5063793659210205,0.9339680671691895
1783337830640580900,4.947580810546875,0.910181999206543,-0.5856254696846008,0.9241845607757568
1783337830650554600,4.9575546875,0.9779232144355774,-0.6694191694259644,0.8693591356277466
1783337830660527600,4.967527587890625,1.051149606704712,-0.7743459343910217,0.8254473805427551
1783337830670500900,4.9775009765625,1.1393446922302246,-0.9352269768714905,0.8270098567008972
1783337830680472600,4.98747265625,1.1920047998428345,-1.1331627368927002,0.8284077644348145
1783337830690445600,4.997445556640625,1.1193119287490845,-1.2834084033966064,0.7534089088439941
1783337830700418800,5.007418701171875,0.9078184366226196,-1.3025873899459839,0.6038544178009033
1783337830710391600,5.0173916015625,0.5949050188064575,-1.1862472295761108,0.4472579061985016
1783337830720364500,5.027364501953125,0.27806952595710754,-0.9117715954780579,0.32408034801483154
1783337830730337500,5.037337646484375,0.050793763250112534,-0.5156343579292297,0.26128408312797546
1783337830740309800,5.047309814453125,-0.033427923917770386,-0.07305518537759781,0.2742781341075897
1783337830750282500,5.057282470703125,0.04068465530872345,0.3455767035484314,0.3551657795906067
1783337830760255500,5.06725537109375,0.21123972535133362,0.650527834892273,0.4762583374977112
1783337830770228700,5.077228759765625,0.4086446762084961,0.7558050155639648,0.6199414730072021
1783337830780201700,5.08720166015625,0.5570957064628601,0.7168451547622681,0.7183019518852234
1783337830790174700,5.0971748046875,0.6142716407775879,0.5347440838813782,0.721318781375885
1783337830800147500,5.1071474609375,0.6019723415374756,0.18238092958927155,0.6121619343757629
1783337830810119700,5.11711962890625,0.5749058127403259,-0.3368430435657501,0.4133361279964447
1783337830820092700,5.1270927734375,0.601209282875061,-0.9449121952056885,0.18002231419086456
1783337830830065700,5.137065673828125,0.6785615682601929,-1.5182596445083618,-0.0006622334476560354
1783337830840038700,5.14703857421875,0.7390202283859253,-1.8813632726669312,-0.08764666318893433
1783337830850011600,5.15701171875,0.7340419888496399,-2.0198280811309814,-0.11045317351818085
1783337830859984600,5.166984619140625,0.6433833241462708,-2.0095791816711426,-0.10663952678442001
1783337830869957600,5.17695751953125,0.4869751036167145,-1.8716882467269897,-0.07904145866632462
1783337830879929600,5.1869296875,0.3238433301448822,-1.596765398979187,-0.027909230440855026
1783337830889902600,5.196902587890625,0.18725992739200592,-1.1508959531784058,0.04892696440219879
1783337830899875600,5.20687548828125,0.06389803439378738,-0.5104055404663086,0.14036738872528076
1783337830909848600,5.2168486328125,-0.02103629894554615,0.24716950953006744,0.22815929353237152
1783337830919821800,5.22682177734375,-0.04553349316120148,0.9716264605522156,0.338259220123291
1783337830929794600,5.236794677734375,-0.06313725560903549,1.5795785188674927,0.4827905595302582
1783337830939767600,5.246767578125,-0.09263382852077484,2.10371994972229,0.6744876503944397
1783337830949739800,5.25673974609375,-0.11929313093423843,2.5868337154388428,0.9097039103507996
1783337830959712800,5.266712646484375,-0.12298758327960968,3.0376837253570557,1.136411190032959
1783337830969685500,5.276685546875,-0.07516653090715408,3.398674726486206,1.2674301862716675
1783337830979658500,5.286658447265625,0.00642698397859931,3.6034841537475586,1.2460858821868896
1783337830989631700,5.2966318359375,0.06016531214118004,3.6021580696105957,1.0841054916381836
1783337830999604700,5.306604736328125,0.03311102092266083,3.33803391456604,0.8295254111289978
1783337831009577700,5.31657763671875,-0.04382983222603798,2.786651611328125,0.5446252226829529
1783337831019549700,5.3265498046875,-0.1161482185125351,2.012586832046509,0.2852773070335388
1783337831029522700,5.336522705078125,-0.13776829838752747,1.1479212045669556,0.09189267456531525
1783337831039495700,5.34649560546875,-0.11573421210050583,0.3662169575691223,-0.0499853640794754
1783337831049468700,5.35646875,-0.0736866295337677,-0.22167371213436127,-0.14731724560260773
1783337831059441700,5.366441650390625,-0.0161015335470438,-0.5873481035232544,-0.19636476039886475
1783337831069414700,5.37641455078125,0.03813853859901428,-0.7627478837966919,-0.1977413445711136
1783337831079387600,5.3863876953125,0.0685076043009758,-0.8201612234115601,-0.15984110534191132
1783337831089359600,5.396359619140625,0.07100512087345123,-0.779365062713623,-0.08024880290031433
1783337831099332600,5.40633251953125,0.05645867809653282,-0.599844217300415,0.03914603963494301
1783337831109305600,5.4163056640625,0.05625255033373833,-0.28243619203567505,0.18745693564414978
1783337831119278600,5.426278564453125,0.09693347662687302,0.13561439514160156,0.33655282855033875
1783337831129251800,5.436251953125,0.16190050542354584,0.5622839331626892,0.4785083830356598
1783337831139224600,5.446224609375,0.20277714729309082,0.8912081122398376,0.5962245464324951
1783337831149196500,5.456196533203125,0.21783652901649475,1.0871484279632568,0.6853144764900208
1783337831159169800,5.466169677734375,0.2407047003507614,1.1704903841018677,0.7495251297950745
1783337831169142800,5.476142822265625,0.2776278257369995,1.1764538288116455,0.795135498046875
1783337831179115500,5.486115478515625,0.3174940049648285,1.1237051486968994,0.820697546005249
1783337831189088500,5.496088623046875,0.34286993741989136,1.001704454421997,0.8328604698181152
1783337831199061800,5.506061767578125,0.3582359850406647,0.8089081645011902,0.8227629065513611
1783337831209034800,5.51603466796875,0.3652411699295044,0.5718687772750854,0.7844415903091431
1783337831219006500,5.52600634765625,0.3734600245952606,0.32020363211631775,0.7166078090667725
1783337831228979700,5.535979736328125,0.3828577995300293,0.09834979474544525,0.6238789558410645
1783337831238952700,5.54595263671875,0.3919788897037506,-0.05987101420760155,0.5231148600578308
1783337831248925700,5.55592578125,0.3778497576713562,-0.15452829003334045,0.4316837191581726
1783337831258898700,5.565898681640625,0.3467763066291809,-0.18546746671199799,0.34880489110946655
1783337831268871400,5.575871337890625,0.3229580521583557,-0.17574240267276764,0.27351731061935425
1783337831278844700,5.5858447265625,0.3060210645198822,-0.12497362494468689,0.21539635956287384
1783337831288816600,5.595816650390625,0.2663775086402893,-0.04289153590798378,0.19921979308128357
1783337831298789600,5.60578955078125,0.18693481385707855,0.05289516597986221,0.21574430167675018
1783337831308762600,5.6157626953125,0.0843069776892662,0.14498993754386902,0.23347963392734528
1783337831318735600,5.625735595703125,-0.016376418992877007,0.23436297476291656,0.23368988931179047
1783337831328708600,5.63570849609375,-0.1027696281671524,0.3292175829410553,0.21163810789585114
1783337831338681600,5.645681640625,-0.16554687917232513,0.4550810158252716,0.15686240792274475
1783337831348654800,5.65565478515625,-0.20712494850158691,0.651371419429779,0.0869847983121872
1783337831358626600,5.66562646484375,-0.22117868065834045,0.8929128050804138,0.011496241204440594
1783337831368599600,5.675599609375,-0.22566743195056915,1.1110032796859741,-0.06270714849233627
1783337831378572800,5.68557275390625,-0.23979325592517853,1.2306368350982666,-0.11165206134319305
1783337831388545800,5.6955458984375,-0.2652123272418976,1.24994957447052,-0.14347471296787262
1783337831398517500,5.705517578125,-0.2969284653663635,1.1890380382537842,-0.1824253797531128
1783337831408490800,5.71549072265625,-0.3250751495361328,1.0738799571990967,-0.2560902535915375
1783337831418463700,5.725463623046875,-0.3585791289806366,0.9362220764160156,-0.3797100782394409
1783337831428436700,5.735436767578125,-0.42725032567977905,0.7807709574699402,-0.5632711052894592
1783337831438409500,5.745409423828125,-0.5278307199478149,0.6293298006057739,-0.7871123552322388
1783337831448382700,5.7553828125,-0.647220253944397,0.5099160671234131,-1.0347511768341064
1783337831458354700,5.765354736328125,-0.7668944597244263,0.4445532262325287,-1.2624567747116089
1783337831468327400,5.775327392578125,-0.8884837031364441,0.44328823685646057,-1.4580484628677368
1783337831478300700,5.78530078125,-0.9905299544334412,0.517403781414032,-1.609025478363037
1783337831488273700,5.795273681640625,-1.0646488666534424,0.6528934240341187,-1.699063777923584
1783337831498246700,5.80524658203125,-1.1225531101226807,0.8378549814224243,-1.7504408359527588
1783337831508219600,5.8152197265625,-1.18222177028656,1.0062936544418335,-1.8048912286758423
1783337831518192600,5.825192626953125,-1.2357981204986572,1.2554510831832886,-1.8837101459503174
1783337831528164600,5.83516455078125,-1.2608320713043213,1.5882288217544556,-2.012449264526367
1783337831538137600,5.8451376953125,-1.2557228803634644,1.9005630016326904,-2.171398401260376
1783337831548110800,5.85511083984375,-1.2260891199111938,2.1351230144500732,-2.3104946613311768
1783337831558083600,5.86508349609375,-1.1491957902908325,2.328336000442505,-2.406641721725464
1783337831568056600,5.875056640625,-1.024834394454956,2.43122935295105,-2.4233269691467285
1783337831578029600,5.885029541015625,-0.8575453758239746,2.3132898807525635,-2.299072742462158
1783337831588002600,5.89500244140625,-0.6988406777381897,1.973642110824585,-2.0078978538513184
1783337831597974500,5.904974609375,-0.5340484380722046,1.6329548358917236,-1.6254546642303467
1783337831607947500,5.914947509765625,-0.40522846579551697,1.202390432357788,-1.1702048778533936
1783337831617920500,5.92492041015625,-0.37523192167282104,0.7320457696914673,-0.7100929021835327
1783337831627893800,5.934893798828125,-0.47186577320098877,0.28672394156455994,-0.37498408555984497
1783337831637866800,5.94486669921875,-0.6263259649276733,-0.012560410425066948,-0.3265373408794403
1783337831647839500,5.954839599609375,-0.7901995778083801,-0.0269638504832983,-0.46987318992614746
1783337831657811700,5.964811767578125,-0.953397274017334,-0.019871309399604797,-0.591718316078186
1783337831667784700,5.97478466796875,-1.0853195190429688,-0.10230999439954758,-0.6046889424324036
1783337831677757400,5.98475732421875,-1.1351008415222168,-0.28918665647506714,-0.5718925595283508
1783337831687730400,5.99473046875,-1.115373134613037,-0.47630032896995544,-0.5095556378364563
1783337831697703700,6.00470361328125,-1.0265247821807861,-0.7309345602989197,-0.39535748958587646
1783337831707676700,6.0146767578125,-0.8902466893196106,-1.1027169227600098,-0.26141592860221863
1783337831717649700,6.024649658203125,-0.709237277507782,-1.5392271280288696,-0.14559032022953033
1783337831727621600,6.03462158203125,-0.5799277424812317,-1.870721697807312,-0.06331488490104675
1783337831737594600,6.0445947265625,-0.5209549069404602,-2.1453235149383545,-0.012828279286623001
1783337831747567600,6.054567626953125,-0.4719178378582001,-2.281254529953003,0.010000336915254593
1783337831757540600,6.06454052734375,-0.42996546626091003,-2.2421517372131348,0.02333291992545128
1783337831767513600,6.074513671875,-0.385251522064209,-2.0904805660247803,0.0436677522957325
1783337831777486600,6.084486572265625,-0.3272936940193176,-1.9201408624649048,0.0565752349793911
1783337831787459600,6.09445947265625,-0.2211046665906906,-1.7562004327774048,0.04949202388525009
1783337831797431800,6.104431884765625,-0.08767320215702057,-1.6314352750778198,0.0637294128537178
1783337831807404500,6.114404541015625,0.013435577973723412,-1.5949065685272217,0.10005252808332443
1783337831817377500,6.12437744140625,0.08729439228773117,-1.554366946220398,0.15753613412380219
1783337831827350500,6.1343505859375,0.14558272063732147,-1.4301648139953613,0.22737433016300201
1783337831837323800,6.14432373046875,0.18086206912994385,-1.2383828163146973,0.2954690456390381
1783337831847296800,6.154296875,0.1674535870552063,-1.0273829698562622,0.3660132586956024
1783337831857268500,6.1642685546875,0.1969761699438095,-0.8157737255096436,0.44097715616226196
1783337831867241700,6.17424169921875,0.28511375188827515,-0.5606706142425537,0.5226890444755554
1783337831877214700,6.184214599609375,0.3895222842693329,-0.2918349802494049,0.6058424711227417
1783337831887187500,6.1941875,0.4647429883480072,-0.10749949514865875,0.6546318531036377
1783337831897160400,6.204160400390625,0.5289540886878967,-0.0722658559679985,0.6468634605407715
1783337831907133700,6.2141337890625,0.588857114315033,-0.09362733364105225,0.5747881531715393
1783337831917106700,6.224106689453125,0.6086870431900024,-0.11788104474544525,0.466508150100708
1783337831927078400,6.234078369140625,0.5499254465103149,-0.1490432322025299,0.3703555464744568
1783337831937051600,6.2440517578125,0.41874000430107117,-0.137748122215271,0.2931033670902252
1783337831947024600,6.254024658203125,0.2411215603351593,-0.013681568205356598,0.21289612352848053
1783337831956997600,6.26399755859375,0.045849092304706573,0.23391787707805634,0.0987572968006134
1783337831966970600,6.273970703125,-0.17992544174194336,0.5988934636116028,-0.04225095734000206
1783337831976943600,6.283943603515625,-0.42852815985679626,0.950959324836731,-0.14006726443767548
1783337831986916600,6.29391650390625,-0.6169049739837646,1.054977536201477,-0.11844424903392792
1783337831996888600,6.303888671875,-0.7101763486862183,0.8005967736244202,0.03044195845723152
1783337832006861600,6.313861572265625,-0.7159825563430786,0.30930295586586,0.25481513142585754
1783337832016834600,6.32383447265625,-0.564548909664154,-0.24781419336795807,0.48556986451148987
1783337832026807600,6.3338076171875,-0.2652519643306732,-0.675034761428833,0.6822906732559204
1783337832036780500,6.343780517578125,0.10578808188438416,-0.8574448227882385,0.7854956984519958
1783337832046753500,6.35375341796875,0.36466917395591736,-0.8652308583259583,0.8278165459632874
1783337832056726800,6.363726806640625,0.5176319479942322,-0.8533971309661865,0.8627583384513855
1783337832066698500,6.373698486328125,0.623514711856842,-0.8239076733589172,0.8915777206420898
1783337832076671500,6.38367138671875,0.7545319199562073,-0.7596197128295898,0.906926155090332
1783337832086644700,6.393644775390625,0.9330747723579407,-0.650884211063385,0.9081853032112122
1783337832096617700,6.40361767578125,1.1087868213653564,-0.5734966397285461,0.8681953549385071
1783337832106590500,6.413590576171875,1.1871572732925415,-0.5940621495246887,0.7149440050125122
1783337832116563500,6.4235634765625,1.1183381080627441,-0.629310131072998,0.4632346034049988
1783337832126535700,6.43353564453125,0.9272062182426453,-0.6250519752502441,0.22894753515720367
1783337832136508700,6.4435087890625,0.6708604693412781,-0.515661895275116,0.1303587704896927
1783337832146481400,6.4534814453125,0.42686697840690613,-0.26404696702957153,0.18986311554908752
1783337832156454700,6.46345458984375,0.2768486440181732,0.0737762451171875,0.35022076964378357
1783337832166427600,6.473427734375,0.28324851393699646,0.40559494495391846,0.5353034734725952
1783337832176400600,6.483400634765625,0.4181574583053589,0.616969108581543,0.6685581803321838
1783337832186373600,6.49337353515625,0.5452360510826111,0.650080144405365,0.6818028688430786
1783337832196345600,6.503345703125,0.5441865921020508,0.502047061920166,0.617525041103363
1783337832206318600,6.513318603515625,0.47264742851257324,0.23796559870243073,0.5464940071105957
1783337832216291600,6.52329150390625,0.512894332408905,-0.0780089870095253,0.4165459871292114
1783337832226264800,6.533264892578125,0.6914787292480469,-0.41512948274612427,0.24008840322494507
1783337832236237600,6.543237548828125,0.8800908327102661,-0.8016617298126221,0.052000321447849274
1783337832246210600,6.55321044921875,0.959226667881012,-1.2168165445327759,-0.1019785925745964
1783337832256182800,6.563182861328125,0.9343544840812683,-1.6169503927230835,-0.1907000094652176
1783337832266155500,6.573155517578125,0.853239119052887,-1.9126657247543335,-0.22935178875923157
1783337832276128500,6.58312841796875,0.7379787564277649,-2.0965425968170166,-0.2086055725812912
1783337832286101500,6.5931015625,0.6137670278549194,-2.158109426498413,-0.1390797644853592
1783337832296074800,6.60307470703125,0.5020474791526794,-2.0863354206085205,-0.04986431822180748
1783337832306047700,6.6130478515625,0.40149688720703125,-1.846697211265564,0.03373417258262634
1783337832316020500,6.6230205078125,0.3216994106769562,-1.4426147937774658,0.10923564434051514
1783337832325992700,6.63299267578125,0.2472832351922989,-0.9529106020927429,0.193378746509552
1783337832335965700,6.642965576171875,0.15824134647846222,-0.4279656410217285,0.2835882008075714
1783337832345938700,6.652938720703125,0.07488679885864258,0.12248179316520691,0.38216137886047363
1783337832355911400,6.662911376953125,0.03623845800757408,0.6788801550865173,0.5130000710487366
1783337832365884400,6.672884521484375,0.024888331070542336,1.2308666706085205,0.7344219088554382
1783337832375857700,6.682857666015625,0.01201365701854229,1.7406128644943237,1.0529431104660034
1783337832385829600,6.69282958984375,0.021474001929163933,2.1464056968688965,1.381065845489502
1783337832395802600,6.702802734375,0.0803128182888031,2.3684885501861572,1.592357873916626
1783337832405775600,6.712775634765625,0.1506977677345276,2.4232006072998047,1.6247762441635132
1783337832415748600,6.72274853515625,0.16175591945648193,2.306032180786133,1.4902113676071167
1783337832425721600,6.7327216796875,0.10803622752428055,2.016334295272827,1.2411943674087524
1783337832435694600,6.742694580078125,0.04700588434934616,1.5584120750427246,0.9393795728683472
1783337832445667600,6.75266748046875,-0.0041736820712685585,0.9907454252243042,0.6368935108184814
1783337832455639600,6.7626396484375,-0.04363424330949783,0.42662155628204346,0.3785213828086853
1783337832465612500,6.772612548828125,-0.04527688026428223,-0.0362534262239933,0.18193775415420532
1783337832475585800,6.782585693359375,-0.00548622477799654,-0.32860806584358215,0.057096950709819794
1783337832485558500,6.79255859375,0.037475090473890305,-0.4901716411113739,-0.005749387666583061
1783337832495531500,6.802531494140625,0.06992368400096893,-0.5704606175422668,-0.023015523329377174
1783337832505504500,6.81250439453125,0.10601670295000076,-0.6063752174377441,-0.01396903209388256
1783337832515476700,6.822476806640625,0.14678950607776642,-0.5963600277900696,0.02074386365711689
1783337832525449500,6.832449462890625,0.20134249329566956,-0.5519645810127258,0.08465706557035446
1783337832535422500,6.84242236328125,0.24629800021648407,-0.47291815280914307,0.17173337936401367
1783337832545395700,6.852395751953125,0.29391586780548096,-0.36972758173942566,0.27007219195365906
1783337832555368700,6.86236865234375,0.3381747305393219,-0.24663673341274261,0.3699072599411011
1783337832565341700,6.872341796875,0.3655354976654053,-0.11997254192829132,0.4610113501548767
1783337832575314400,6.882314453125,0.3809606432914734,-0.016869744285941124,0.5470330715179443
1783337832585286700,6.89228662109375,0.3943787217140198,0.037700291723012924,0.6226482391357422
1783337832595259600,6.902259765625,0.40895336866378784,0.061453431844711304,0.6766849756240845
1783337832605232600,6.912232666015625,0.4217700958251953,0.08279573917388916,0.7047006487846375
1783337832615205600,6.92220556640625,0.4241144359111786,0.11559482663869858,0.7088305950164795
1783337832625178600,6.9321787109375,0.418599009513855,0.1699960082769394,0.6985936760902405
1783337832635151600,6.942151611328125,0.40209200978279114,0.2286771833896637,0.6802904009819031
1783337832645123600,6.95212353515625,0.3793584704399109,0.25432395935058594,0.6465369462966919
1783337832655097000,6.96209716796875,0.35188814997673035,0.220345601439476,0.6049182415008545
1783337832665070000,6.972070068359375,0.32008177042007446,0.11987625062465668,0.5479723811149597
1783337832675043000,6.98204296875,0.30853450298309326,-0.031630802899599075,0.47167035937309265
1783337832685015800,6.992015869140625,0.3090706169605255,-0.17890867590904236,0.40546470880508423
1783337832694989000,7.001989013671875,0.2997347116470337,-0.2701096832752228,0.3687250018119812
1783337832704962000,7.011962158203125,0.26785987615585327,-0.283808171749115,0.35200968384742737
1783337832714934000,7.02193408203125,0.22250016033649445,-0.18409541249275208,0.339210569858551
1783337832724907000,7.031906982421875,0.16136889159679413,0.026579536497592926,0.3160693049430847
1783337832734880000,7.0418798828125,0.06390659511089325,0.25995612144470215,0.2639758884906769
1783337832744853000,7.05185302734375,-0.06377999484539032,0.4031529724597931,0.17551767826080322
1783337832754826000,7.061825927734375,-0.19934751093387604,0.4095815420150757,0.04789372906088829
1783337832764799200,7.07179931640625,-0.32700055837631226,0.30037835240364075,-0.1068231463432312
1783337832774771000,7.08177099609375,-0.4488946497440338,0.14446735382080078,-0.27270111441612244
1783337832784744000,7.091743896484375,-0.5744850635528564,0.0002313484437763691,-0.43175655603408813
1783337832794717200,7.10171728515625,-0.7030991911888123,-0.10372414439916611,-0.5637251734733582
1783337832804690200,7.111690185546875,-0.8418418765068054,-0.16154751181602478,-0.6877397894859314
1783337832814663000,7.121662841796875,-0.9986215233802795,-0.14413869380950928,-0.818557858467102
1783337832824636000,7.131635986328125,-1.15574049949646,-0.028701052069664,-0.9701641798019409
1783337832834609200,7.141609130859375,-1.2851035594940186,0.18569034337997437,-1.1477283239364624
1783337832844581000,7.1515810546875,-1.3674719333648682,0.468038946390152,-1.3091052770614624
1783337832854553900,7.161553955078125,-1.3730698823928833,0.7616407871246338,-1.4033012390136719
1783337832864527000,7.171527099609375,-1.330015778541565,1.0254164934158325,-1.4740906953811646
1783337832874500000,7.1815,-1.2958141565322876,1.2764354944229126,-1.5665043592453003
1783337832884473000,7.19147314453125,-1.2454191446304321,1.453473687171936,-1.6744084358215332
1783337832894445800,7.20144580078125,-1.1857786178588867,1.5321955680847168,-1.7920918464660645
1783337832904418000,7.21141796875,-1.1376999616622925,1.5484195947647095,-1.914341926574707
1783337832914391000,7.22139111328125,-1.0601392984390259,1.610884189605713,-2.028514862060547
1783337832924364000,7.231364013671875,-0.9399607181549072,1.7755529880523682,-2.0944340229034424
1783337832934337000,7.2413369140625,-0.8395187854766846,1.9361423254013062,-2.0695550441741943
1783337832944310000,7.25131005859375,-0.7507944703102112,1.975690484046936,-1.9360084533691406
1783337832954283000,7.261282958984375,-0.6850825548171997,1.9676241874694824,-1.7230826616287231
1783337832964255000,7.2712548828125,-0.606154203414917,1.8671727180480957,-1.4902498722076416
1783337832974228000,7.28122802734375,-0.5045486688613892,1.4635297060012817,-1.202745795249939
1783337832984201000,7.291200927734375,-0.38292261958122253,0.7500714659690857,-0.8511068224906921
1783337832994174000,7.301174072265625,-0.304284930229187,-0.041290730237960815,-0.4834877848625183
1783337833004147000,7.31114697265625,-0.3552732765674591,-0.7116453647613525,-0.2024952620267868
1783337833014120200,7.3211201171875,-0.5720058679580688,-1.0357041358947754,-0.16129010915756226
1783337833024093000,7.331093017578125,-0.92429119348526,-0.9394250512123108,-0.30405178666114807
1783337833034065000,7.34106494140625,-1.308772325515747,-0.6214450001716614,-0.4497321546077728
1783337833044038100,7.3510380859375,-1.566710114479065,-0.38445693254470825,-0.44728124141693115
1783337833054011100,7.36101123046875,-1.6134047508239746,-0.36781615018844604,-0.36203426122665405
1783337833063983900,7.37098388671875,-1.50263512134552,-0.573065996170044,-0.2487015724182129
1783337833073956900,7.380956787109375,-1.2973636388778687,-0.9914578795433044,-0.1344742774963379
1783337833083930000,7.39093017578125,-1.034697413444519,-1.559638500213623,-0.024984531104564667
1783337833093902000,7.400902099609375,-0.7919142246246338,-2.0944111347198486,0.0897284671664238
1783337833103874800,7.410874755859375,-0.6218580603599548,-2.4979846477508545,0.2010648399591446
1783337833113848000,7.42084814453125,-0.49595728516578674,-2.7681314945220947,0.2881088852882385
1783337833123821000,7.430821044921875,-0.4009535312652588,-2.9361140727996826,0.34842708706855774
1783337833133794000,7.4407939453125,-0.33875685930252075,-2.9376614093780518,0.3768083155155182
1783337833143767000,7.45076708984375,-0.31321343779563904,-2.7900376319885254,0.3828483819961548
1783337833153740000,7.460739990234375,-0.29244524240493774,-2.542104721069336,0.36825889348983765
1783337833163712000,7.4707119140625,-0.2388603240251541,-2.228743553161621,0.3381795585155487
1783337833173685000,7.48068505859375,-0.19036024808883667,-1.9302245378494263,0.32405686378479004
1783337833183658200,7.490658203125,-0.15674956142902374,-1.7193008661270142,0.32807478308677673
1783337833193631000,7.500630859375,-0.14133869111537933,-1.6154764890670776,0.32544592022895813
1783337833203604000,7.51060400390625,-0.12812620401382446,-1.5457810163497925,0.32347598671913147
1783337833213577000,7.520576904296875,-0.10754033178091049,-1.4074057340621948,0.3356403410434723
1783337833223549200,7.530549072265625,-0.08984096348285675,-1.1288774013519287,0.3588593900203705
1783337833233522000,7.54052197265625,-0.07675864547491074,-0.729431688785553,0.38339418172836304
1783337833243495000,7.550494873046875,-0.04646119475364685,-0.4267416000366211,0.4277861416339874
1783337833253468200,7.56046826171875,0.015438034199178219,-0.2008333057165146,0.47984778881073
1783337833263441200,7.570441162109375,0.07573200017213821,0.02556973323225975,0.5197119116783142
1783337833273414000,7.580413818359375,0.1340608298778534,0.23763704299926758,0.5281301736831665
1783337833283386000,7.59038623046875,0.15084487199783325,0.3693481981754303,0.4863240718841553
1783337833293359000,7.600359130859375,0.1194489598274231,0.3595368564128876,0.4096777141094208
1783337833303332000,7.61033203125,0.05665642023086548,0.23713769018650055,0.3267364799976349
1783337833313304800,7.620304931640625,-0.01650850847363472,0.08046950399875641,0.26635298132896423
1783337833323277800,7.63027783203125,-0.08481965214014053,-0.07336612790822983,0.2402942180633545
1783337833333251000,7.6402509765625,-0.14985324442386627,-0.1874205768108368,0.23617082834243774
1783337833343223000,7.65022314453125,-0.2065732479095459,-0.19363506138324738,0.24595075845718384
1783337833353196000,7.660196044921875,-0.24013935029506683,-0.08677291870117188,0.25522226095199585
1783337833363169000,7.6701689453125,-0.24122965335845947,0.15010859072208405,0.24745671451091766
1783337833373142000,7.68014208984375,-0.21028466522693634,0.49168315529823303,0.21463298797607422
1783337833383115000,7.690114990234375,-0.156044602394104,0.7969893217086792,0.18735449016094208
1783337833393088000,7.700087890625,-0.09996972978115082,0.9415164589881897,0.1982119381427765
1783337833403061000,7.71006103515625,-0.04747483506798744,0.8435171842575073,0.2934596538543701
1783337833413033000,7.720032958984375,0.009215375408530235,0.5366374254226685,0.4595988690853119
1783337833423006000,7.730005859375,0.12276750057935715,0.09199360758066177,0.6530796885490417
1783337833432979200,7.739979248046875,0.33178576827049255,-0.3088676631450653,0.7823501229286194
1783337833442952000,7.749951904296875,0.5276990532875061,-0.5205562114715576,0.8486455678939819
1783337833452925000,7.759925048828125,0.6880602240562439,-0.6599010229110718,0.8670761585235596
1783337833462898000,7.76989794921875,0.8413872122764587,-0.7722294330596924,0.8469775915145874
1783337833472870100,7.7798701171875,1.0091642141342163,-0.8570064902305603,0.8048120141029358
1783337833482843000,7.7898427734375,1.1579363346099854,-0.9241231679916382,0.7559995055198669
1783337833492816000,7.79981591796875,1.2720719575881958,-0.9780457019805908,0.6904153823852539
1783337833502789000,7.8097890625,1.3476275205612183,-1.0003448724746704,0.5840119123458862
1783337833512762000,7.81976220703125,1.3435730934143066,-0.9991046786308289,0.4313696324825287
1783337833522735000,7.829735107421875,1.2092599868774414,-0.9722278118133545,0.28178998827934265
1783337833532707000,7.83970703125,0.9466851353645325,-0.8790631294250488,0.1869397908449173
1783337833542680000,7.84968017578125,0.6148070693016052,-0.6717522740364075,0.18340709805488586
1783337833552653000,7.859653076171875,0.35396239161491394,-0.280892938375473,0.2588732838630676
1783337833562626000,7.8696259765625,0.2298998385667801,0.22198137640953064,0.3611197769641876
1783337833572599000,7.87959912109375,0.20047627389431,0.73630291223526,0.45209622383117676
1783337833582572000,7.889572021484375,0.230270117521286,1.1894539594650269,0.5268335342407227
1783337833592544000,7.8995439453125,0.2733020484447479,1.4402425289154053,0.5939657688140869
1783337833602517200,7.909517333984375,0.311629980802536,1.3732414245605469,0.6182418465614319
1783337833612490000,7.919489990234375,0.43145668506622314,1.004725456237793,0.578166127204895
1783337833622463000,7.929462890625,0.6121132969856262,0.5046748518943787,0.4682912826538086
1783337833632436000,7.93943603515625,0.7749062180519104,0.007461361587047577,0.31071799993515015
1783337833642409000,7.949408935546875,0.8698311448097229,-0.4505451023578644,0.1532157063484192
1783337833652382700,7.9593828125,0.9040018320083618,-0.8461419939994812,0.015221478417515755
1783337833662354700,7.969354736328125,0.9093286991119385,-1.0691559314727783,-0.12921878695487976
1783337833672327700,7.97932763671875,0.8565435409545898,-1.1555893421173096,-0.26748383045196533
1783337833682301000,7.989301025390625,0.7286596298217773,-1.0470900535583496,-0.41049057245254517
1783337833692273700,7.999273681640625,0.5249439477920532,-0.797398567199707,-0.48338571190834045
1783337833702246700,8.00924658203125,0.33557990193367004,-0.5563542246818542,-0.455847829580307
1783337833712219600,8.0192197265625,0.22422292828559875,-0.31645074486732483,-0.31657877564430237
1783337833722192000,8.02919189453125,0.1707834005355835,-0.1226205825805664,-0.062126778066158295
1783337833732164600,8.03916455078125,0.11343491077423096,0.10156708210706711,0.23392219841480255
1783337833742137600,8.0491376953125,0.05877859145402908,0.43170425295829773,0.5418920516967773
1783337833752110600,8.059110595703125,0.02078617736697197,0.8553775548934937,0.8483741283416748
1783337833762083800,8.069083740234374,-0.015588074922561646,1.2996407747268677,1.1393681764602661
1783337833772056800,8.079056884765626,0.018928175792098045,1.7573126554489136,1.374123215675354
1783337833782028800,8.08902880859375,0.13557462394237518,2.2451603412628174,1.4762730598449707
1783337833792001800,8.099001708984375,0.21793299913406372,2.6599836349487305,1.4582762718200684
1783337833801974800,8.108974853515624,0.1998077929019928,2.909792900085449,1.3460055589675903
1783337833811947800,8.11894775390625,0.10309558361768723,2.955209493637085,1.156752347946167
1783337833821920500,8.12892041015625,-0.03231550008058548,2.82684326171875,0.9194038510322571
1783337833831893800,8.138893798828125,-0.15782034397125244,2.5598397254943848,0.6560527682304382
1783337833841865700,8.14886572265625,-0.2345534712076187,2.143596649169922,0.4033702313899994
1783337833851838700,8.158838623046876,-0.2487495392560959,1.586794137954712,0.1962190419435501
1783337833861811700,8.168811767578125,-0.2446029782295227,1.0092098712921143,0.03601976856589317
1783337833871784700,8.17878466796875,-0.23367704451084137,0.5549551248550415,-0.07329753041267395
1783337833881757700,8.1887578125,-0.18855562806129456,0.22744649648666382,-0.1483086496591568
1783337833891730700,8.198730712890624,-0.12995341420173645,0.019515931606292725,-0.18596968054771423
1783337833901702700,8.20870263671875,-0.07893868535757065,-0.12470409274101257,-0.18869249522686005
1783337833911675600,8.218675537109375,-0.027399573475122452,-0.222270667552948,-0.15967196226119995
1783337833921648600,8.228648681640625,0.03814961016178131,-0.24865302443504333,-0.10076950490474701
1783337833931622000,8.238621826171874,0.09134848415851593,-0.18916434049606323,-0.0036941529251635075
1783337833941595000,8.248594970703126,0.12865085899829865,-0.06363943219184875,0.12144645303487778
1783337833951567600,8.258567626953125,0.16225911676883698,0.10324256867170334,0.2620546519756317
1783337833961539800,8.268539794921875,0.20909133553504944,0.3026669919490814,0.39886441826820374
1783337833971512800,8.278512939453124,0.26317527890205383,0.5195066928863525,0.5159280300140381
1783337833981485600,8.288485595703126,0.3229832351207733,0.7041926383972168,0.6083471775054932
1783337833991458600,8.29845849609375,0.3800073266029358,0.8057916164398193,0.668652355670929
1783337834001431800,8.308431884765625,0.4186045229434967,0.8262755274772644,0.7035560011863708
1783337834011404800,8.31840478515625,0.43389472365379333,0.7933547496795654,0.7278446555137634
1783337834021376500,8.32837646484375,0.4317799210548401,0.7390022873878479,0.7483912110328674
1783337834031349800,8.338349853515625,0.42825451493263245,0.6822259426116943,0.7684601545333862
1783337834041322800,8.34832275390625,0.4281309247016907,0.6236494779586792,0.7867975831031799
1783337834051295700,8.358295654296874,0.4436798095703125,0.5586373209953308,0.8021454215049744
1783337834061268700,8.368268798828124,0.45825663208961487,0.48477956652641296,0.8027739524841309
1783337834071241700,8.37824169921875,0.4552227854728699,0.3968682289123535,0.7846093773841858
1783337834081213700,8.388213623046875,0.42976775765419006,0.29408860206604004,0.7366077899932861
1783337834091186700,8.398186767578125,0.4166903495788574,0.19653671979904175,0.6763393878936768
1783337834101160000,8.408159912109374,0.40539586544036865,0.12160788476467133,0.6363746523857117
1783337834111132700,8.418132568359376,0.3479361832141876,0.08114302903413773,0.6149563193321228
1783337834121105700,8.428105712890625,0.2426566481590271,0.06286895275115967,0.577879786491394
1783337834131078700,8.43807861328125,0.11574665457010269,0.08694492280483246,0.4782533645629883
1783337834141051000,8.44805078125,-0.007017344702035189,0.15311302244663239,0.3051111400127411
1783337834151023600,8.458023681640626,-0.10994324088096619,0.25340700149536133,0.08218793570995331
1783337834160996600,8.46799658203125,-0.18653921782970428,0.39645764231681824,-0.13753029704093933
1783337834170969600,8.477969482421875,-0.23849324882030487,0.5646043419837952,-0.3194407820701599
1783337834180942800,8.48794287109375,-0.28108012676239014,0.7010849714279175,-0.44917774200439453
1783337834190915800,8.497915771484376,-0.3209405541419983,0.7629907131195068,-0.5400522351264954
1783337834200888600,8.507888671875,-0.3724879026412964,0.7570459842681885,-0.6275285482406616
1783337834210860800,8.51786083984375,-0.42557311058044434,0.6876578330993652,-0.7125733494758606
1783337834220833800,8.527833740234374,-0.4751790165901184,0.5664331316947937,-0.7891208529472351
1783337834230806800,8.537806884765626,-0.5397788882255554,0.41284966468811035,-0.8558275699615479
1783337834240779500,8.547779541015625,-0.6189948320388794,0.25182080268859863,-0.9339538216590881
1783337834250752800,8.557752685546875,-0.7128662467002869,0.1402416229248047,-1.0448414087295532
1783337834260725800,8.567725830078125,-0.8155438899993896,0.11814884096384048,-1.2002084255218506
1783337834270697700,8.57769775390625,-0.9029896259307861,0.214943528175354,-1.3686134815216064
1783337834280670700,8.587670654296875,-0.9588150382041931,0.3935662806034088,-1.501132607460022
1783337834290643700,8.597643798828125,-0.9866893291473389,0.6206188201904297,-1.5593172311782837
1783337834300616700,8.60761669921875,-1.0216801166534424,0.9137939810752869,-1.5907939672470093
1783337834310589700,8.617589599609374,-1.0368694067001343,1.22697114944458,-1.6189526319503784
1783337834320561700,8.627561767578126,-1.0367647409439087,1.6345751285552979,-1.6923898458480835
1783337834330534700,8.63753466796875,-1.061043620109558,2.1041829586029053,-1.7866290807724
1783337834340507600,8.647507568359375,-1.118953824043274,2.5374972820281982,-1.8883399963378906
1783337834350481000,8.65748095703125,-1.1407078504562378,2.8310189247131348,-1.9529963731765747
1783337834360453600,8.66745361328125,-1.1016533374786377,2.9885342121124268,-1.9722318649291992
1783337834370426600,8.677426513671875,-1.0424078702926636,2.9981720447540283,-1.951595664024353
1783337834380398800,8.68739892578125,-0.9628270864486694,2.835090398788452,-1.8813451528549194
1783337834390371800,8.697371826171874,-0.8813122510910034,2.46042537689209,-1.711554765701294
1783337834400344600,8.707344482421876,-0.804469108581543,1.9528063535690308,-1.4522454738616943
1783337834410317600,8.717317626953125,-0.701280415058136,1.3469451665878296,-1.1537771224975586
1783337834420290800,8.727290771484375,-0.5867799520492554,0.5979087948799133,-0.8143886923789978
1783337834430263800,8.737263916015625,-0.562161922454834,-0.005414946470409632,-0.5116571187973022
1783337834440235500,8.747235595703126,-0.6699535846710205,-0.33713802695274353,-0.3587639331817627
1783337834450208800,8.757208740234375,-0.8320465087890625,-0.4785342216491699,-0.37690049409866333
1783337834460181800,8.767181640625,-0.9975239038467407,-0.5274612903594971,-0.4350721836090088
1783337834470154800,8.77715478515625,-1.177930235862732,-0.5088158845901489,-0.4380935728549957
1783337834480127700,8.787127685546874,-1.306599497795105,-0.5001829862594604,-0.44432803988456726
1783337834490100700,8.797100830078126,-1.297970175743103,-0.6135791540145874,-0.45683175325393677
1783337834500072700,8.80707275390625,-1.1456712484359741,-0.9326218366622925,-0.44707950949668884
1783337834510045700,8.817045654296875,-0.9338636994361877,-1.447283148765564,-0.39578789472579956
1783337834520018700,8.827018798828124,-0.7426234483718872,-2.0097548961639404,-0.3218068778514862
1783337834529991700,8.83699169921875,-0.6319552659988403,-2.369649648666382,-0.23082244396209717
1783337834539964700,8.846964599609375,-0.5681502223014832,-2.514328956604004,-0.14931373298168182
1783337834549937700,8.856937744140625,-0.52217036485672,-2.452692747116089,-0.09222061932086945
1783337834559910000,8.866909912109374,-0.4791347086429596,-2.2481865882873535,-0.06876056641340256
1783337834569882600,8.876882568359376,-0.42336246371269226,-2.007002115249634,-0.061953864991664886
1783337834579855600,8.886855712890625,-0.3421211242675781,-1.8211820125579834,-0.06112562119960785
1783337834589828600,8.89682861328125,-0.26154038310050964,-1.7092623710632324,-0.06988021731376648
1783337834599801900,8.9068017578125,-0.18653617799282074,-1.6122615337371826,-0.051475640386343
1783337834609774800,8.91677490234375,-0.0960208848118782,-1.548464298248291,0.0026537009980529547
1783337834619746600,8.92674658203125,0.009275705553591251,-1.495566725730896,0.0853176862001419
1783337834629719800,8.9367197265625,0.10630378127098083,-1.3977952003479004,0.18089547753334045
1783337834639692800,8.94669287109375,0.18506623804569244,-1.252591609954834,0.28882646560668945
1783337834649665800,8.956665771484374,0.23093685507774353,-1.034943699836731,0.39437246322631836
1783337834659637200,8.96663720703125,0.27526435256004333,-0.7933870553970337,0.4752958118915558
1783337834669610000,8.97660986328125,0.3521559536457062,-0.5790004730224609,0.5318781137466431
1783337834679582200,8.986582275390624,0.42437368631362915,-0.39152032136917114,0.5549472570419312
1783337834689555200,8.99655517578125,0.46697089076042175,-0.25156933069229126,0.5358924865722656
1783337834699528200,9.006528076171875,0.4653831124305725,-0.1558089554309845,0.45560532808303833
1783337834709501000,9.0165009765625,0.43607309460639954,-0.0531533844769001,0.3482015132904053
1783337834719474200,9.02647412109375,0.3634263277053833,0.018209213390946388,0.279480516910553
1783337834729447200,9.036447265625,0.2478170394897461,0.0657847449183464,0.29360803961753845
1783337834739419100,9.046419189453125,0.10748124122619629,0.15934185683727264,0.35422399640083313
1783337834749392100,9.05639208984375,-0.0384315624833107,0.34861457347869873,0.37879708409309387
1783337834759365000,9.066365234375,-0.1933620274066925,0.6518982648849487,0.3321709930896759
1783337834769338000,9.076338134765624,-0.3227258622646332,0.9533811211585999,0.24448004364967346
1783337834779311000,9.08631103515625,-0.40156662464141846,1.1754940748214722,0.17429882287979126
1783337834789284400,9.096284423828125,-0.3720892667770386,1.1832631826400757,0.16378819942474365
1783337834799256000,9.106256103515625,-0.24827063083648682,0.973069965839386,0.23494945466518402
1783337834809229000,9.11622900390625,-0.03615649789571762,0.5930008292198181,0.3762611150741577
1783337834819202300,9.126202392578126,0.24000264704227448,0.17771866917610168,0.5276015996932983
1783337834829175300,9.13617529296875,0.5069636702537537,-0.15522506833076477,0.6364782452583313
1783337834839148000,9.14614794921875,0.7039850950241089,-0.3902609944343567,0.6888660788536072
1783337834849120300,9.156120361328124,0.8747109174728394,-0.5310021638870239,0.6776620149612427
1783337834859093200,9.16609326171875,1.0347752571105957,-0.6208729147911072,0.6114204525947571
1783337834869066200,9.176066162109375,1.144120454788208,-0.6869402527809143,0.5053442716598511
1783337834879039000,9.1860390625,1.1712061166763306,-0.7600448131561279,0.35248759388923645
1783337834889012200,9.19601220703125,1.0963079929351807,-0.8461476564407349,0.1870386004447937
1783337834898985200,9.205985107421874,0.9039220213890076,-0.8881832361221313,0.08213508129119873
1783337834908957200,9.215957275390625,0.6086400747299194,-0.8392361402511597,0.09560734778642654
1783337834918930200,9.22593017578125,0.3042559325695038,-0.622305691242218,0.18450607359409332
1783337834928903200,9.235903076171875,0.11197096109390259,-0.26191455125808716,0.29399240016937256
1783337834938876200,9.245876220703124,0.07339400798082352,0.21518409252166748,0.39571475982666016
1783337834948849200,9.25584912109375,0.16948142647743225,0.7263363003730774,0.4628477990627289
1783337834958822100,9.265822265625,0.31786343455314636,1.1519886255264282,0.48343002796173096
1783337834968794000,9.275794189453125,0.48167529702186584,1.342695713043213,0.4641290307044983
1783337834978767000,9.28576708984375,0.6500376462936401,1.2274175882339478,0.42521998286247253
1783337834988740000,9.295739990234376,0.7638759016990662,0.729701817035675,0.4116585850715637
1783337834998713300,9.30571337890625,0.8154829144477844,-0.07791300117969513,0.42916861176490784
1783337835008686000,9.31568603515625,0.8191699385643005,-1.0228123664855957,0.4527892470359802
1783337835018659000,9.3256591796875,0.8414235711097717,-1.761898159980774,0.42167872190475464
1783337835028632000,9.335632080078126,0.8699547052383423,-2.2152557373046875,0.3288499712944031
1783337835038605300,9.345605224609375,0.8145806789398193,-2.4175503253936768,0.27801236510276794
1783337835048577000,9.355576904296875,0.6635075807571411,-2.362825632095337,0.31411823630332947
1783337835058550000,9.365550048828124,0.5387802720069885,-2.037667751312256,0.38362300395965576
1783337835068523300,9.375523193359374,0.4427221119403839,-1.516008734703064,0.4877898395061493
1783337835078496300,9.385496337890626,0.3283025920391083,-0.9090072512626648,0.6042877435684204
1783337835088469000,9.395468994140625,0.18428672850131989,-0.31962713599205017,0.7034300565719604
1783337835098441200,9.405441162109375,0.055825963616371155,0.2599177360534668,0.7814508080482483
1783337835108414200,9.415414306640624,-0.00783597119152546,0.8315596580505371,0.8480449914932251
1783337835118387200,9.42538720703125,-0.003751481417566538,1.4100126028060913,0.8938329815864563
1783337835128360000,9.43535986328125,0.03797180578112602,1.9818013906478882,0.9099559187889099
1783337835138333200,9.445333251953125,0.0671752318739891,2.4297890663146973,0.8789364695549011
1783337835148306200,9.45530615234375,0.07006782293319702,2.686851978302002,0.7945483922958374
1783337835158278100,9.465278076171876,0.0362456813454628,2.7147371768951416,0.673467755317688
1783337835168251100,9.475251220703125,-0.009863418526947498,2.454265594482422,0.5452142953872681
1783337835178224000,9.48522412109375,-0.05562291666865349,1.9438128471374512,0.42956575751304626
1783337835188197000,9.495197021484374,-0.08785516023635864,1.2728524208068848,0.3353489637374878
1783337835198170000,9.505170166015626,-0.08386813849210739,0.5617841482162476,0.253324419260025
1783337835208143400,9.515143310546875,-0.05734303221106529,-0.058184877038002014,0.18906532227993011
1783337835218115000,9.525114990234375,-0.029693029820919037,-0.5020968317985535,0.14619135856628418
1783337835228088000,9.535088134765624,-0.008877119049429893,-0.7508593797683716,0.12879180908203125
1783337835238061300,9.545061279296876,0.007239000406116247,-0.8390203714370728,0.1306733340024948
1783337835248034300,9.555034423828126,0.017798392102122307,-0.7988011837005615,0.1478562355041504
1783337835258007000,9.565007080078125,0.02629733644425869,-0.6391966342926025,0.17934198677539825
1783337835267980000,9.57497998046875,0.037225548177957535,-0.41358664631843567,0.22005093097686768
1783337835277952300,9.5849521484375,0.053655654191970825,-0.1659102737903595,0.2671031355857849
1783337835287925200,9.59492529296875,0.0782734826207161,0.06138146296143532,0.31320637464523315
1783337835297898000,9.60489794921875,0.11276541650295258,0.251202255487442,0.36819958686828613
1783337835307871000,9.61487109375,0.149206280708313,0.39419811964035034,0.4282425045967102
1783337835317844200,9.62484423828125,0.18763063848018646,0.49427491426467896,0.4976133108139038
1783337835327816200,9.634816162109376,0.23038709163665771,0.5424930453300476,0.5688218474388123
1783337835337789200,9.6447890625,0.26931050419807434,0.5411659479141235,0.6310023665428162
1783337835347762200,9.65476220703125,0.30624252557754517,0.48569127917289734,0.680290162563324
1783337835357735200,9.664735107421874,0.3327345848083496,0.3809768557548523,0.7053276300430298
1783337835367708200,9.674708251953126,0.35388827323913574,0.2568376064300537,0.702783465385437
1783337835377680100,9.68468017578125,0.3713551461696625,0.14697051048278809,0.6748098731040955
1783337835387653000,9.694653076171875,0.37941139936447144,0.08590315282344818,0.6402309536933899
1783337835397626000,9.704626220703124,0.38243940472602844,0.07957468181848526,0.6099281311035156
1783337835407599000,9.71459912109375,0.38493651151657104,0.13385224342346191,0.5955531597137451
1783337835417572000,9.724572021484375,0.3809497356414795,0.22062762081623077,0.5929243564605713
1783337835427544000,9.7345439453125,0.38964390754699707,0.3073982298374176,0.5849239230155945
1783337835437517000,9.74451708984375,0.40984559059143066,0.3891229033470154,0.5720374584197998
1783337835447490300,9.754490234375,0.4096633791923523,0.4450245797634125,0.564293384552002
1783337835457463000,9.764463134765625,0.38816845417022705,0.46259692311286926,0.5496790409088135
1783337835467436000,9.77443603515625,0.36091047525405884,0.4364643096923828,0.5058359503746033
1783337835477409000,9.784408935546875,0.3195286691188812,0.3758648931980133,0.43561986088752747
1783337835487381200,9.79438134765625,0.26025113463401794,0.29946795105934143,0.3455304503440857
1783337835497354000,9.80435400390625,0.18186630308628082,0.22391512989997864,0.22758729755878448
1783337835507327000,9.814326904296875,0.10233656316995621,0.17235825955867767,0.07643580436706543
1783337835517300200,9.82430029296875,0.014193657785654068,0.15278242528438568,-0.10128945112228394
1783337835527273200,9.834273193359374,-0.09080877155065536,0.17679227888584137,-0.2888169586658478
1783337835537245000,9.844244873046875,-0.21114343404769897,0.24352577328681946,-0.4711364209651947
1783337835547218200,9.85421826171875,-0.3325762450695038,0.3250982165336609,-0.6353051066398621
1783337835557191200,9.864191162109375,-0.45884495973587036,0.37621304392814636,-0.7840633988380432
1783337835567164200,9.8741640625,-0.5842304825782776,0.39476242661476135,-0.9308823347091675
1783337835577137200,9.88413720703125,-0.7031012177467346,0.3961943984031677,-1.0586568117141724
1783337835587110100,9.894110107421875,-0.8290323615074158,0.3637446463108063,-1.17062246799469
1783337835597082000,9.90408203125,-0.9715762138366699,0.32451361417770386,-1.2811018228530884
1783337835607055000,9.91405517578125,-1.1103287935256958,0.32228317856788635,-1.3918625116348267
1783337835617028400,9.9240283203125,-1.213816523551941,0.34836190938949585,-1.4841394424438477
1783337835627001000,9.9340009765625,-1.28010892868042,0.4560418128967285,-1.5568487644195557
1783337835636974000,9.94397412109375,-1.3106303215026855,0.6254987716674805,-1.5944960117340088
1783337835646946300,9.9539462890625,-1.2877798080444336,0.8578417301177979,-1.6415127515792847
1783337835656919600,9.96391943359375,-1.2103973627090454,1.133124828338623,-1.6876161098480225
1783337835666892500,9.973892578125,-1.108764410018921,1.4521148204803467,-1.7452293634414673
1783337835676865500,9.983865478515625,-1.0343862771987915,1.7382904291152954,-1.8506969213485718
1783337835686838300,9.99383837890625,-0.9474537372589111,1.9157752990722656,-1.980214238166809
1783337835696811500,10.0038115234375,-0.8422849178314209,2.0146915912628174,-2.065795421600342
1783337835706783500,10.013783447265626,-0.7270234823226929,2.0365140438079834,-2.064621925354004
1783337835716756500,10.023756591796875,-0.6141248941421509,2.020677089691162,-1.9817280769348145
1783337835726729500,10.0337294921875,-0.5303862690925598,1.8894221782684326,-1.7956459522247314
1783337835736702500,10.043702392578124,-0.5021919012069702,1.5151851177215576,-1.4641852378845215
1783337835746675500,10.053675537109376,-0.4582146406173706,0.8273254036903381,-0.9988248348236084
1783337835756647700,10.063647705078125,-0.3750814199447632,0.048163022845983505,-0.5115909576416016
1783337835766620400,10.073620361328125,-0.37423330545425415,-0.574936032295227,-0.1188710555434227
1783337835776593400,10.083593505859374,-0.5269879102706909,-0.8313659429550171,-0.0027646885719150305
1783337835786566400,10.09356640625,-0.8833594918251038,-0.668508768081665,-0.1877375990152359
1783337835796539600,10.10353955078125,-1.3298221826553345,-0.3219279646873474,-0.3475610613822937
1783337835806512400,10.113512451171875,-1.6453691720962524,-0.13904502987861633,-0.3657684028148651
1783337835816484400,10.123484375,-1.7473483085632324,-0.23889653384685516,-0.33697324991226196
1783337835826457600,10.13345751953125,-1.6437232494354248,-0.6409700512886047,-0.2909511923789978
1783337835836430600,10.1434306640625,-1.356333613395691,-1.2502193450927734,-0.24057777225971222
1783337835846403300,10.1534033203125,-1.0305538177490234,-1.912845253944397,-0.1602858006954193
1783337835856376300,10.163376220703125,-0.7969006299972534,-2.5314242839813232,-0.04046246036887169
1783337835866348500,10.1733486328125,-0.6469244360923767,-3.015575408935547,0.058794282376766205
1783337835876321500,10.183321533203125,-0.5438776612281799,-3.301208257675171,0.09171201288700104
1783337835886294300,10.193294189453125,-0.4769972264766693,-3.3523592948913574,0.07002023607492447
1783337835896267500,10.203267578125,-0.4472212493419647,-3.192305088043213,0.02279653772711754
1783337835906240500,10.213240478515624,-0.4218178987503052,-2.8938872814178467,-0.018297163769602776
1783337835916212500,10.22321240234375,-0.3670680820941925,-2.597381830215454,-0.029442228376865387
1783337835926185500,10.233185546875,-0.30038443207740784,-2.3747174739837646,0.008276586420834064
1783337835936158500,10.243158447265625,-0.24570469558238983,-2.1895575523376465,0.08022881299257278
1783337835946131500,10.25313134765625,-0.1902526319026947,-2.00661039352417,0.1690036803483963
1783337835956104400,10.2631044921875,-0.1291983276605606,-1.8469903469085693,0.24814723432064056
1783337835966077400,10.273077392578125,-0.07119284570217133,-1.6724604368209839,0.3133876919746399
1783337835976049400,10.28304931640625,-0.03076312690973282,-1.4454283714294434,0.37245261669158936
1783337835986022400,10.2930224609375,-0.0169778224080801,-1.1754940748214722,0.4279845654964447
1783337835995995600,10.30299560546875,0.0101680438965559,-0.9299724102020264,0.4681205451488495
1783337836005968600,10.31296875,0.06535473465919495,-0.7446720600128174,0.4954826533794403
1783337836015941400,10.32294140625,0.15228243172168732,-0.5732875466346741,0.5137596726417542
1783337836025913600,10.33291357421875,0.2448725700378418,-0.35900524258613586,0.5352433919906616
1783337836035886600,10.342886474609376,0.29368433356285095,-0.14342419803142548,0.545375406742096
1783337836045859600,10.352859619140625,0.3037252128124237,0.004607247654348612,0.5168278813362122
1783337836055832300,10.362832275390625,0.29859066009521484,0.13482144474983215,0.47282901406288147
1783337836065805300,10.372805419921875,0.2744846045970917,0.2643662095069885,0.4508940875530243
1783337836075778600,10.382778564453124,0.21739257872104645,0.3721019923686981,0.4491744935512543
1783337836085750500,10.39275048828125,0.12970560789108276,0.45675650238990784,0.44816330075263977
1783337836095723300,10.40272314453125,0.01516119297593832,0.6150582432746887,0.418414443731308
1783337836105696500,10.412696533203125,-0.12609107792377472,0.9399118423461914,0.34224388003349304
1783337836115669500,10.42266943359375,-0.2985190451145172,1.39212965965271,0.23093922436237335
1783337836125642500,10.432642578125,-0.48297327756881714,1.8028644323349,0.10650334507226944
1783337836135614500,10.442614501953125,-0.6092332005500793,1.919021487236023,0.0442223995923996
1783337836145587500,10.45258740234375,-0.6694291830062866,1.6787513494491577,0.1261218637228012
1783337836155560400,10.462560546875,-0.6318610310554504,1.2007306814193726,0.3063875138759613
1783337836165533400,10.472533447265626,-0.45409587025642395,0.6440600156784058,0.5216482281684875
1783337836175506400,10.48250634765625,-0.1425984501838684,0.11334528028964996,0.7205914258956909
1783337836185478400,10.492478515625,0.2231033891439438,-0.31427183747291565,0.8398590087890625
1783337836195451400,10.502451416015624,0.5095189213752747,-0.696087658405304,0.843254566192627
1783337836205424600,10.512424560546876,0.6547164916992188,-1.0331047773361206,0.7946205735206604
1783337836215397400,10.5223974609375,0.7440365552902222,-1.3346672058105469,0.7413570284843445
1783337836225370400,10.532370361328125,0.8473609089851379,-1.5710679292678833,0.6953064203262329
1783337836235343400,10.54234326171875,0.9682908058166504,-1.7065147161483765,0.6692332625389099
1783337836245315600,10.552315673828126,1.0483819246292114,-1.6609981060028076,0.6184622645378113
1783337836255288300,10.562288330078125,0.9961034059524536,-1.4595205783843994,0.46517178416252136
1783337836265261300,10.57226123046875,0.8203181624412537,-1.224374532699585,0.25072991847991943
1783337836275234600,10.582234619140625,0.6077393293380737,-0.9778769612312317,0.09480156004428864
1783337836285207600,10.59220751953125,0.3604239821434021,-0.7522763609886169,0.06351380795240402
1783337836295179300,10.60217919921875,0.16557329893112183,-0.5072234869003296,0.13692091405391693
1783337836305152500,10.612152587890625,0.13198070228099823,-0.18360622227191925,0.28408294916152954
1783337836315125500,10.62212548828125,0.29963549971580505,0.16247448325157166,0.443679541349411
1783337836325098500,10.632098388671874,0.566245436668396,0.45065680146217346,0.5617003440856934
1783337836335071500,10.642071533203126,0.8112685084342957,0.5840066075325012,0.6282612681388855
1783337836345043500,10.65204345703125,0.9451553225517273,0.4676860570907593,0.6412522196769714
1783337836355016400,10.662016357421875,0.950115442276001,0.048856329172849655,0.6122434735298157
1783337836364989400,10.671989501953124,0.8305158615112305,-0.5953304171562195,0.4835485517978668
1783337836374962700,10.681962646484376,0.7212178707122803,-1.391108751296997,0.22115184366703033
1783337836384935400,10.691935302734375,0.7806562781333923,-2.183992385864258,-0.053890909999608994
1783337836394908400,10.701908447265625,0.8995014429092407,-2.777296543121338,-0.20005904138088226
1783337836404880600,10.711880615234374,0.9431537985801697,-3.0025439262390137,-0.21701711416244507
1783337836414853600,10.721853515625,0.8954144716262817,-2.990438461303711,-0.15238219499588013
1783337836424826400,10.731826416015625,0.7706508636474609,-2.8219053745269775,-0.03898260369896889
1783337836434799400,10.74179931640625,0.5926419496536255,-2.49143123626709,0.1259530782699585
1783337836444772600,10.751772705078125,0.3998059630393982,-1.959943175315857,0.2784440815448761
1783337836454744600,10.76174462890625,0.2165628969669342,-1.2411257028579712,0.39725568890571594
1783337836464717300,10.77171728515625,0.06590112298727036,-0.37882766127586365,0.47882702946662903
1783337836474690600,10.781690673828125,-0.022354165092110634,0.5151246786117554,0.566215455532074
1783337836484663600,10.79166357421875,-0.049811653792858124,1.3661335706710815,0.7374455332756042
1783337836494636500,10.801636474609374,-0.05225963145494461,2.2030019760131836,1.049941897392273
1783337836504608500,10.8116083984375,-0.036913733929395676,2.964834213256836,1.4827691316604614
1783337836514581500,10.82158154296875,0.03112204559147358,3.5367753505706787,1.9022431373596191
1783337836524554500,10.831554443359375,0.17139776051044464,3.7799155712127686,2.1429171562194824
1783337836534527500,10.841527587890624,0.3377270996570587,3.683818817138672,2.1126768589019775
1783337836544500500,10.85150048828125,0.39584124088287354,3.336232900619507,1.878353476524353
1783337836554472400,10.861472412109375,0.32720786333084106,2.7281150817871094,1.5083421468734741
1783337836564445400,10.871445556640625,0.1911398023366928,1.8797543048858643,1.0585685968399048
1783337836574418400,10.88141845703125,0.05909762158989906,0.9162300825119019,0.581267774105072
1783337836584391400,10.891391357421876,-0.026112845167517662,0.08123750239610672,0.12961946427822113
1783337836594364400,10.901364501953125,-0.0471976213157177,-0.5190911889076233,-0.20718146860599518
1783337836604337400,10.91133740234375,-0.019257573410868645,-0.9121373891830444,-0.39684855937957764
1783337836614309600,10.9213095703125,0.03211160749197006,-1.150007963180542,-0.4607665538787842
1783337836624282400,10.931282470703126,0.07374134659767151,-1.259995460510254,-0.4337455630302429
1783337836634255400,10.94125537109375,0.09535902738571167,-1.2573591470718384,-0.34646791219711304
1783337836644228400,10.951228271484375,0.10397697985172272,-1.1184686422348022,-0.21609826385974884
1783337836654201000,10.961201171875,0.10980477184057236,-0.8601058721542358,-0.05543214827775955
1783337836664173000,10.971173095703126,0.12244246900081635,-0.48802950978279114,0.12245169281959534
1783337836674146000,10.98114599609375,0.15701428055763245,-0.03550359979271889,0.28526565432548523
1783337836684119000,10.991119140625,0.1938353031873703,0.3849787712097168,0.4169214367866516
1783337836694092000,11.001092041015625,0.22886812686920166,0.6589969396591187,0.5216800570487976
1783337836704065000,11.01106494140625,0.25328150391578674,0.8023743033409119,0.6175497174263
1783337836714037200,11.021037353515625,0.2572315037250519,0.8446293473243713,0.7226308584213257
1783337836724010000,11.031010009765625,0.25127577781677246,0.797939121723175,0.8397817611694336
1783337836733983000,11.04098291015625,0.25980642437934875,0.6667544841766357,0.9393770694732666
1783337836743956000,11.0509560546875,0.2776241898536682,0.47558239102363586,0.9758584499359131
1783337836753929200,11.06092919921875,0.28228336572647095,0.25858110189437866,0.9416306614875793
1783337836763901000,11.07090087890625,0.27179980278015137,0.039588812738657,0.8489605784416199
1783337836773874000,11.0808740234375,0.26402711868286133,-0.15864357352256775,0.7200428247451782
1783337836783847200,11.09084716796875,0.251506507396698,-0.30686312913894653,0.5852727293968201
1783337836793820200,11.100820068359376,0.2390328049659729,-0.37808698415756226,0.4688963294029236
1783337836803793200,11.110793212890625,0.21943393349647522,-0.3546162545681,0.40195432305336
1783337836813765000,11.12076513671875,0.2039383202791214,-0.2280636429786682,0.36843016743659973
1783337836823738000,11.130738037109374,0.21047094464302063,-0.012770969420671463,0.34268301725387573
1783337836833711000,11.140711181640626,0.21089625358581543,0.2477405071258545,0.3328247666358948
1783337836843684000,11.15068408203125,0.16084733605384827,0.4970741868019104,0.32368215918540955
1783337836853657000,11.160656982421875,0.07268337905406952,0.7042372226715088,0.282439649105072
1783337836863630000,11.170630126953125,-0.01756160333752632,0.8546715974807739,0.18980257213115692
1783337836873602000,11.18060205078125,-0.1045745313167572,0.9245769381523132,0.036757100373506546
1783337836883575300,11.1905751953125,-0.18328656256198883,0.9216112494468689,-0.14564765989780426
1783337836893548000,11.200548095703125,-0.2608673572540283,0.8840715885162354,-0.33150139451026917
1783337836903521000,11.21052099609375,-0.33243194222450256,0.8398626446723938,-0.5022785067558289
1783337836913494000,11.220493896484374,-0.41287538409233093,0.7771917581558228,-0.6394877433776855
1783337836923466200,11.23046630859375,-0.5074777603149414,0.7086178660392761,-0.7606629729270935
1783337836933439000,11.24043896484375,-0.6070680022239685,0.6479380130767822,-0.8843330144882202
1783337836943412000,11.250411865234375,-0.7168006300926208,0.6011402010917664,-1.0084211826324463
1783337836953385200,11.26038525390625,-0.8496292233467102,0.5879327654838562,-1.1298503875732422
1783337836963358200,11.270358154296876,-0.9899761080741882,0.5971245765686035,-1.2578155994415283
1783337836973330000,11.280329833984375,-1.1134594678878784,0.6130385994911194,-1.3922940492630005
1783337836983303200,11.29030322265625,-1.2056384086608887,0.6963868737220764,-1.5109803676605225
1783337836993276200,11.300276123046874,-1.2674026489257812,0.82880699634552,-1.6110448837280273
1783337837003249200,11.310249267578126,-1.3220402002334595,0.9072281122207642,-1.7098305225372314
1783337837013222000,11.320221923828125,-1.3286586999893188,1.0305895805358887,-1.8348981142044067
1783337837023194000,11.330194091796875,-1.301331877708435,1.2085946798324585,-1.9768325090408325
1783337837033167000,11.3401669921875,-1.2916072607040405,1.352836012840271,-2.0905230045318604
1783337837043140000,11.35014013671875,-1.2829440832138062,1.4074487686157227,-2.1756794452667236
1783337837053113000,11.360113037109375,-1.2283276319503784,1.450151801109314,-2.217832326889038
1783337837063086000,11.370086181640625,-1.1096699237823486,1.515377402305603,-2.213513135910034
1783337837073058000,11.38005810546875,-0.9565190672874451,1.5719683170318604,-2.1615703105926514
1783337837083031300,11.39003125,-0.7954375147819519,1.5768816471099854,-1.9989017248153687
1783337837093004000,11.400004150390625,-0.6244940161705017,1.4348869323730469,-1.6599606275558472
1783337837102977000,11.40997705078125,-0.4866246283054352,0.9468194246292114,-1.1073449850082397
1783337837112950000,11.419949951171875,-0.36863675713539124,0.41620934009552,-0.5137187242507935
1783337837122922200,11.429922119140626,-0.3462795317173004,0.10877514630556107,-0.007461685687303543
1783337837132895000,11.43989501953125,-0.41222259402275085,0.036747291684150696,0.2541019916534424
1783337837142868000,11.449867919921875,-0.6131842136383057,0.18482546508312225,0.059585195034742355
1783337837152841200,11.45984130859375,-0.8893465399742126,0.32456737756729126,-0.23344747722148895
1783337837162814200,11.469814208984374,-1.1752005815505981,0.21538865566253662,-0.3588758707046509
1783337837172786000,11.479785888671875,-1.3555885553359985,-0.12399207800626755,-0.40378206968307495
1783337837182759200,11.48975927734375,-1.3435661792755127,-0.5583603978157043,-0.43749216198921204
1783337837192732200,11.499732177734375,-1.1685103178024292,-1.0377085208892822,-0.4106571078300476
1783337837202705200,11.509705078125,-0.8933197855949402,-1.5395407676696777,-0.29756101965904236
1783337837212678100,11.51967822265625,-0.669928789138794,-1.9449058771133423,-0.12797093391418457
1783337837222650000,11.529650146484375,-0.5668296813964844,-2.245243549346924,0.0496906079351902
1783337837232623000,11.539623046875,-0.5343404412269592,-2.4337852001190186,0.1653551608324051
1783337837242596000,11.54959619140625,-0.48267310857772827,-2.4525914192199707,0.17946046590805054
1783337837252569000,11.559569091796876,-0.4454796612262726,-2.385422468185425,0.1278396099805832
1783337837262542000,11.5695419921875,-0.43436288833618164,-2.266920804977417,0.047159019857645035
1783337837272514000,11.57951416015625,-0.38835597038269043,-2.105578660964966,-0.039840590208768845
1783337837282487000,11.589487060546874,-0.32145747542381287,-1.979692816734314,-0.08186095207929611
1783337837292460300,11.599460205078126,-0.2549181282520294,-1.9063187837600708,-0.08733534067869186
1783337837302433000,11.60943310546875,-0.18625368177890778,-1.819453477859497,-0.036263298243284225
1783337837312406000,11.619406005859375,-0.1055859923362732,-1.648795485496521,0.08065292984247208
1783337837322378200,11.629378173828124,0.0018003511941060424,-1.4610679149627686,0.2307121306657791
1783337837332351200,11.639351318359376,0.13348354399204254,-1.273550271987915,0.3702812194824219
1783337837342324000,11.649323974609375,0.2609775960445404,-1.0792292356491089,0.4736851155757904
1783337837352297000,11.659296875,0.3417307734489441,-0.9034766554832458,0.5416675806045532
1783337837362270200,11.669270263671875,0.37429654598236084,-0.707051157951355,0.5904706120491028
1783337837372242200,11.6792421875,0.4249320328235626,-0.42466554045677185,0.6367587447166443
1783337837382215000,11.68921484375,0.46087217330932617,-0.10365166515111923,0.6969261765480042
1783337837392188200,11.699188232421875,0.4682707190513611,0.16482719779014587,0.7396190762519836
1783337837402161200,11.7091611328125,0.46885648369789124,0.38250604271888733,0.7205846309661865
1783337837412134100,11.719134033203124,0.4547137916088104,0.5606569051742554,0.6445966362953186
1783337837422106000,11.729106201171875,0.4211048483848572,0.6550942063331604,0.5458956956863403
1783337837432079000,11.7390791015625,0.33847787976264954,0.7114789485931396,0.45263928174972534
1783337837442052000,11.749052001953125,0.17205600440502167,0.8535280823707581,0.3374655544757843
1783337837452025000,11.759025146484374,-0.08537101000547409,1.1678024530410767,0.17488302290439606
1783337837461998000,11.768998046875,-0.3956744372844696,1.5575916767120361,-0.014414733275771141
1783337837471970000,11.778969970703125,-0.723623514175415,1.7709665298461914,-0.15363280475139618
1783337837481943000,11.788943115234375,-0.979647159576416,1.5952256917953491,-0.18244415521621704
1783337837491916300,11.798916259765624,-1.1034420728683472,1.0648800134658813,-0.1216026321053505
1783337837501889000,11.808888916015626,-1.0296062231063843,0.4180203676223755,0.014848349615931511
1783337837511862000,11.818862060546875,-0.7142541408538818,-0.05309176445007324,0.20346567034721375
1783337837521834200,11.828834228515625,-0.21914836764335632,-0.29722926020622253,0.39852944016456604
1783337837531807200,11.83880712890625,0.3244808316230774,-0.47215500473976135,0.561981201171875
1783337837541780000,11.848780029296876,0.6925263404846191,-0.6596043109893799,0.6485323309898376
1783337837551753000,11.8587529296875,0.9135040044784546,-0.8383855223655701,0.665226399898529
1783337837561726200,11.868726318359375,1.0932725667953491,-0.9633743166923523,0.6545637845993042
1783337837571698200,11.8786982421875,1.262233853340149,-0.9482976198196411,0.6183280348777771
1783337837581671000,11.8886708984375,1.3538243770599365,-0.9245150685310364,0.49599745869636536
1783337837591644200,11.89864404296875,1.3081250190734863,-1.009752631187439,0.3009408712387085
1783337837601617200,11.9086171875,1.124940037727356,-1.1033401489257812,0.11028918623924255
1783337837611590100,11.918590087890625,0.8512073755264282,-1.0658156871795654,0.05460575222969055
1783337837621562000,11.92856201171875,0.5448342561721802,-0.8461522459983826,0.15010738372802734
1783337837631535000,11.93853515625,0.31353285908699036,-0.46019071340560913,0.3034529983997345
1783337837641508000,11.948508056640625,0.2431512475013733,-0.0257568322122097,0.4437728822231293
1783337837651481000,11.958481201171875,0.3402959108352661,0.3983536958694458,0.5371100306510925
1783337837661455000,11.968455078125,0.5591738820075989,0.7486065626144409,0.5908850431442261
1783337837671427000,11.978427001953126,0.8136165738105774,0.9267398118972778,0.6409910917282104
1783337837681400000,11.988400146484375,1.0439199209213257,0.8271591663360596,0.6920984387397766
1783337837691373000,11.998373046875,1.2014051675796509,0.5078743696212769,0.7040560245513916
1783337837701346000,12.008345947265624,1.2136751413345337,0.02256314642727375,0.6684600710868835
1783337837711319300,12.0183193359375,1.0871611833572388,-0.5774208903312683,0.599393904209137
1783337837721291000,12.028291015625,0.8959165811538696,-1.1213064193725586,0.47798511385917664
1783337837731264000,12.038263916015625,0.7604069709777832,-1.5061293840408325,0.3343336880207062
1783337837741237200,12.0482373046875,0.7225604057312012,-1.6746106147766113,0.2057490050792694
1783337837751210200,12.058210205078124,0.6973370909690857,-1.6740832328796387,0.1401289850473404
1783337837761183000,12.068182861328125,0.6274453997612,-1.4570356607437134,0.1339295506477356
1783337837771155200,12.0781552734375,0.5197482705116272,-1.0606521368026733,0.17861126363277435
1783337837781128200,12.088128173828125,0.39987772703170776,-0.5646311640739441,0.2805929481983185
1783337837791101000,12.098100830078126,0.2757696211338043,-0.0045175254344940186,0.42157402634620667
1783337837801074000,12.108073974609376,0.16202586889266968,0.5682585835456848,0.5848324298858643
1783337837811047200,12.118047119140625,0.1113608330488205,0.9963942170143127,0.7570183277130127
1783337837821019100,12.12801904296875,0.16078166663646698,1.4240914583206177,0.8796221017837524
1783337837830992000,12.137991943359374,0.22424346208572388,1.8397762775421143,0.9508358240127563
1783337837840965000,12.147965087890626,0.2686381936073303,2.206610679626465,0.9710677862167358
1783337837850938000,12.157938232421875,0.2606300711631775,2.4648051261901855,0.9306657910346985
1783337837860911000,12.1679111328125,0.1937440186738968,2.593226432800293,0.8136646747589111
1783337837870883000,12.177883056640624,0.08554059267044067,2.5821826457977295,0.6549485325813293
1783337837880856000,12.18785595703125,-0.01299456786364317,2.4339561462402344,0.5158607959747314
1783337837890829000,12.1978291015625,-0.08243169635534286,2.1460492610931396,0.42023786902427673
1783337837900802000,12.207802001953125,-0.1125267818570137,1.7324131727218628,0.35583987832069397
1783337837910775300,12.217775390625,-0.11774072051048279,1.2070825099945068,0.30144375562667847
1783337837920747000,12.2277470703125,-0.10289693623781204,0.6398422122001648,0.23394009470939636
1783337837930720000,12.237719970703125,-0.04565947502851486,0.10120540857315063,0.1629551202058792
1783337837940693200,12.247693359375,0.028323134407401085,-0.29698115587234497,0.1121278926730156
1783337837950666200,12.257666259765625,0.058237358927726746,-0.5092763900756836,0.09505783021450043
1783337837960638000,12.267637939453126,0.05907902494072914,-0.5658236742019653,0.10662148892879486
1783337837970611200,12.277611083984375,0.06150037422776222,-0.4881611168384552,0.1452527791261673
1783337837980584200,12.287584228515625,0.080735944211483,-0.2855191230773926,0.22016848623752594
1783337837990557200,12.29755712890625,0.10789326578378677,0.007218759041279554,0.3238067328929901
1783337838000530000,12.307530029296874,0.1318100541830063,0.32566767930984497,0.4255187213420868
1783337838010502100,12.317502197265625,0.15856976807117462,0.6163071990013123,0.5032827854156494
1783337838020475100,12.32747509765625,0.19332391023635864,0.8169652223587036,0.5435037612915039
1783337838030448000,12.3374482421875,0.2274256944656372,0.893000066280365,0.5602012276649475
1783337838040421000,12.347421142578124,0.26530566811561584,0.841097891330719,0.57421875
1783337838050394000,12.35739404296875,0.3082118630409241,0.6739070415496826,0.5920040607452393
1783337838060366000,12.367365966796875,0.3513638973236084,0.42585626244544983,0.6048430800437927
1783337838070339300,12.37733935546875,0.3900873363018036,0.15205639600753784,0.5908015370368958
1783337838080312000,12.38731201171875,0.4178796708583832,-0.09554646909236908,0.5486186146736145
1783337838090285000,12.39728515625,0.4352608025074005,-0.2864360213279724,0.4819175899028778
1783337838100258000,12.407258056640625,0.4382861852645874,-0.4107035994529724,0.4075172245502472
1783337838110230300,12.417230224609375,0.4333273768424988,-0.4710811972618103,0.3405880033969879
1783337838120203000,12.427203125,0.42291513085365295,-0.4751606285572052,0.302969366312027
1783337838130176000,12.437176025390626,0.4147261679172516,-0.41208338737487793,0.30711910128593445
1783337838140149000,12.44714892578125,0.40701034665107727,-0.3065303564071655,0.3218913972377777
1783337838150122200,12.457122314453125,0.3949906826019287,-0.182371124625206,0.33869460225105286
1783337838160094000,12.467093994140624,0.36170652508735657,-0.05466266721487045,0.3690616190433502
1783337838170067000,12.47706689453125,0.31408149003982544,0.05211491137742996,0.41767868399620056
1783337838180040200,12.487040283203125,0.261272132396698,0.11491391062736511,0.4561828374862671
1783337838190013200,12.49701318359375,0.19612616300582886,0.14718475937843323,0.4676482677459717
1783337838199985200,12.506985107421874,0.1171097680926323,0.16679535806179047,0.4344351887702942
1783337838209958100,12.516958251953126,0.014821212738752365,0.1814723014831543,0.3535025119781494
