time,seconds_elapsed,z,y,x
1783337825755141000,0.06214111328125,0.24036520719528198,1.5940794944763184,-0.5031669735908508
1783337825765114000,0.072114013671875,0.21635814011096954,1.97110915184021,-0.6503575444221497
1783337825775087000,0.082087158203125,0.18598398566246033,2.2739851474761963,-0.8365047574043274
1783337825785060000,0.09206005859375,0.1693461537361145,2.4960920810699463,-1.05643630027771
1783337825795032000,0.102031982421875,0.18459753692150116,2.6827828884124756,-1.2747784852981567
1783337825805005000,0.112005126953125,0.23123188316822052,2.7822492122650146,-1.4552463293075562
1783337825814978000,0.12197802734375,0.30456629395484924,2.7622873783111572,-1.5633513927459717
1783337825824951300,0.131951416015625,0.37891802191734314,2.557285785675049,-1.5960915088653564
1783337825834924000,0.141924072265625,0.46329760551452637,2.2781810760498047,-1.5490585565567017
1783337825844896000,0.15189599609375,0.5299328565597534,2.059035062789917,-1.420213222503662
1783337825854869200,0.161869140625,0.5293610692024231,1.8605115413665771,-1.2391483783721924
1783337825864842200,0.17184228515625,0.44927075505256653,1.6577082872390747,-1.039767861366272
1783337825874815000,0.18181494140625,0.3514099717140198,1.3491872549057007,-0.8289520144462585
1783337825884787200,0.191787109375,0.25376197695732117,0.9469252824783325,-0.6311827301979065
1783337825894760200,0.20176025390625,0.1876995861530304,0.5098909735679626,-0.4412844479084015
1783337825904733200,0.211733154296875,0.17261198163032532,0.16283978521823883,-0.2363792508840561
1783337825914706000,0.221705810546875,0.20757928490638733,-0.05657406151294708,-0.02508644387125969
1783337825924679200,0.23167919921875,0.2856493294239044,-0.16244056820869446,0.1779625415802002
1783337825934651100,0.241651123046875,0.39025482535362244,-0.18958990275859833,0.36493030190467834
1783337825944624000,0.2516240234375,0.49760499596595764,-0.1869184821844101,0.5325981378555298
1783337825954597000,0.26159716796875,0.5858061909675598,-0.16827982664108276,0.6815905570983887
1783337825964570000,0.271570068359375,0.6301579475402832,-0.16220328211784363,0.8101626038551331
1783337825974542000,0.2815419921875,0.621717631816864,-0.14291641116142273,0.9057338833808899
1783337825984515000,0.29151513671875,0.5547683835029602,-0.09745225310325623,0.944801390171051
1783337825994488000,0.301488037109375,0.4286421537399292,-0.09437470883131027,0.9086231589317322
1783337826004461000,0.3114609375,0.27174922823905945,-0.14331960678100586,0.8217988014221191
1783337826014433000,0.32143310546875,0.15973000228405,-0.16664330661296844,0.7090402841567993
1783337826024406300,0.33140625,0.19354842603206635,-0.08348610252141953,0.5819153189659119
1783337826034379000,0.34137890625,0.379976361989975,0.028022579848766327,0.4561654031276703
1783337826044352000,0.35135205078125,0.5936809182167053,-0.07352561503648758,0.4362580180168152
1783337826054325000,0.361324951171875,0.7832750678062439,-0.40197354555130005,0.43501484394073486
1783337826064297200,0.371297119140625,0.7826545834541321,-1.0640654563903809,0.4797751307487488
1783337826074270000,0.38127001953125,0.7866250872612,-1.7982481718063354,0.5160402059555054
1783337826084243000,0.391242919921875,0.8906281590461731,-2.2115867137908936,0.5348809957504272
1783337826094216200,0.40121630859375,1.0831092596054077,-2.1697885990142822,0.572110116481781
1783337826104189200,0.411189208984375,1.2925505638122559,-1.8329459428787231,0.611557126045227
1783337826114161000,0.421160888671875,1.4439126253128052,-1.399469017982483,0.6405994296073914
1783337826124134100,0.431134033203125,1.4941366910934448,-1.0499293804168701,0.6470288038253784
1783337826134107100,0.441107177734375,1.4187711477279663,-0.7587918639183044,0.6104894876480103
1783337826144080100,0.451080078125,1.2937127351760864,-0.6191639304161072,0.533255934715271
1783337826154053000,0.46105322265625,1.1581991910934448,-0.5104206800460815,0.41775330901145935
1783337826164025000,0.471025146484375,1.0361603498458862,-0.4244855046272278,0.2907748520374298
1783337826173998000,0.480998046875,0.9689022302627563,-0.4550101161003113,0.1818944364786148
1783337826183971000,0.49097119140625,0.946959912776947,-0.5536466836929321,0.11450394243001938
1783337826193944300,0.5009443359375,0.9495660662651062,-0.7317929863929749,0.0812477171421051
1783337826203916000,0.510916015625,0.9238244891166687,-0.9942927956581116,0.07581912726163864
1783337826213889000,0.520888916015625,0.8287544250488281,-1.2029274702072144,0.1312248706817627
1783337826223862300,0.5308623046875,0.7117335200309753,-1.3058477640151978,0.20658566057682037
1783337826233835000,0.5408349609375,0.6166397929191589,-1.5401870012283325,0.18870466947555542
1783337826243808000,0.55080810546875,0.6094862222671509,-1.913051962852478,0.12076450139284134
1783337826253780200,0.5607802734375,0.6312882304191589,-2.257451057434082,0.07189203053712845
1783337826263753200,0.570753173828125,0.630534291267395,-2.539806365966797,0.05047063156962395
1783337826273726000,0.580725830078125,0.6669703125953674,-2.764390230178833,0.04230351373553276
1783337826283699000,0.590698974609375,0.7834876179695129,-2.893237590789795,0.020325511693954468
1783337826293672200,0.600672119140625,1.0180271863937378,-2.9888603687286377,-0.023196399211883545
1783337826303644200,0.61064404296875,1.3655287027359009,-3.133061408996582,-0.07022809237241745
1783337826313617000,0.620616943359375,1.8008553981781006,-3.4109878540039062,-0.10326486825942993
1783337826323590100,0.630590087890625,2.1869547367095947,-3.816864490509033,-0.0916188657283783
1783337826333563100,0.640563232421875,2.4286880493164062,-4.220117092132568,-0.032284967601299286
1783337826343535000,0.65053515625,2.5488123893737793,-4.6099419593811035,0.026066754013299942
1783337826353508000,0.660508056640625,2.6829617023468018,-4.867889881134033,0.03509513661265373
1783337826363481000,0.670481201171875,2.8646044731140137,-4.974935054779053,-0.08375535160303116
1783337826373454000,0.6804541015625,3.0945725440979004,-5.118996620178223,-0.3213665783405304
1783337826383427000,0.690427001953125,3.3121378421783447,-5.283524513244629,-0.5513262748718262
1783337826393399000,0.70039892578125,3.4138481616973877,-5.406385898590088,-0.6796371340751648
1783337826403372000,0.7103720703125,3.4585726261138916,-5.533185005187988,-0.7038335204124451
1783337826413345000,0.720344970703125,3.5631048679351807,-5.699058532714844,-0.6342576146125793
1783337826423318300,0.730318359375,3.810214042663574,-5.882849216461182,-0.5085753202438354
1783337826433291300,0.740291259765625,4.224308967590332,-5.981672286987305,-0.38857758045196533
1783337826443263000,0.750262939453125,4.624565124511719,-5.885293960571289,-0.259384423494339
1783337826453236200,0.760236328125,4.99212646484375,-5.617708206176758,-0.1529053896665573
1783337826463209200,0.770209228515625,5.159436225891113,-5.169608116149902,-0.016832243651151657
1783337826473182200,0.78018212890625,5.1663994789123535,-4.754377365112305,0.13359081745147705
1783337826483155000,0.790155029296875,5.089827060699463,-4.494532585144043,0.3187473714351654
1783337826493127200,0.800127197265625,4.9696760177612305,-4.318785667419434,0.6178251504898071
1783337826503100200,0.81010009765625,4.956982135772705,-4.088569164276123,0.9818321466445923
1783337826513073200,0.8200732421875,4.849688529968262,-3.4961254596710205,1.3206712007522583
1783337826523046100,0.830046142578125,4.484519958496094,-2.7826573848724365,1.538941502571106
1783337826533019100,0.84001904296875,4.086645603179932,-2.3617467880249023,1.5914078950881958
1783337826542991000,0.8499912109375,3.767331123352051,-2.1107640266418457,1.562798023223877
1783337826552964000,0.859964111328125,3.5224883556365967,-1.9129986763000488,1.5256365537643433
1783337826562937000,0.86993701171875,3.3548290729522705,-1.7057163715362549,1.4902031421661377
1783337826572910000,0.87991015625,3.278252124786377,-1.5128997564315796,1.4630216360092163
1783337826582883000,0.889883056640625,3.2898426055908203,-1.320381999015808,1.4586676359176636
1783337826592855300,0.899855224609375,3.281002998352051,-1.1773022413253784,1.5216550827026367
1783337826602828000,0.909828125,3.1840882301330566,-1.1585544347763062,1.6310205459594727
1783337826612801000,0.919801025390625,3.022103786468506,-1.2575126886367798,1.73096764087677
1783337826622774000,0.92977392578125,2.8225178718566895,-1.394394874572754,1.7937753200531006
1783337826632747300,0.939747314453125,2.633335828781128,-1.3877061605453491,1.847606897354126
1783337826642719500,0.949719482421875,2.424842596054077,-1.2585833072662354,1.890668272972107
1783337826652692200,0.959692138671875,2.186555862426758,-1.0862855911254883,1.8522647619247437
1783337826662665500,0.96966552734375,1.980821967124939,-0.8905669450759888,1.6888535022735596
1783337826672638500,0.979638427734375,1.8046942949295044,-0.6132705807685852,1.4377511739730835
1783337826682611500,0.989611572265625,1.6882814168930054,-0.30456414818763733,1.1729836463928223
1783337826692583400,0.99958349609375,1.553958535194397,-0.055697884410619736,1.0145375728607178
1783337826702556400,1.009556396484375,1.4051399230957031,-0.03707333281636238,0.9633551239967346
1783337826712529400,1.019529296875,1.1932069063186646,-0.19784463942050934,1.0214210748672485
1783337826722502400,1.02950244140625,0.924096941947937,-0.47682008147239685,1.0956284999847412
1783337826732475400,1.039475341796875,0.7057081460952759,-0.7277337908744812,1.1626570224761963
1783337826742447400,1.049447265625,0.506802499294281,-0.8431914448738098,1.2473018169403076
1783337826752420400,1.05942041015625,0.23621013760566711,-0.8937331438064575,1.2739965915679932
1783337826762393600,1.0693935546875,-0.08259154856204987,-0.9280511736869812,1.1886327266693115
1783337826772366300,1.079366455078125,-0.4125998020172119,-0.9244929552078247,1.0367523431777954
1783337826782339300,1.08933935546875,-0.7810268402099609,-0.9152669310569763,0.7261390686035156
1783337826792311600,1.0993115234375,-1.0812127590179443,-0.7446704506874084,0.3173699676990509
1783337826802284500,1.109284423828125,-1.315391182899475,-0.32611072063446045,-0.22780387103557587
1783337826812257300,1.11925732421875,-1.5110653638839722,0.20686689019203186,-0.8747381567955017
1783337826822230300,1.129230224609375,-1.6342597007751465,0.7108429670333862,-1.4304970502853394
1783337826832203300,1.139203369140625,-1.73360276222229,1.0634419918060303,-1.771764874458313
1783337826842175500,1.149175537109375,-1.7980118989944458,1.1026959419250488,-1.9035907983779907
1783337826852148200,1.159148193359375,-1.8097604513168335,0.7671536207199097,-1.720279335975647
1783337826862121200,1.169121337890625,-1.734947681427002,0.050147321075201035,-1.27877938747406
1783337826872094500,1.179094482421875,-1.3633091449737549,-0.9818134903907776,-0.6428367495536804
1783337826882067500,1.1890673828125,-0.8266843557357788,-2.083357334136963,-0.17267777025699615
1783337826892039400,1.199039306640625,-0.37619146704673767,-2.9777467250823975,0.21571046113967896
1783337826902012400,1.209012451171875,-0.026548253372311592,-3.572481632232666,0.4332188069820404
1783337826911985400,1.2189853515625,0.417107492685318,-3.5247819423675537,0.34262633323669434
1783337826921958400,1.22895849609375,0.58540940284729,-3.0726091861724854,0.07971000671386719
1783337826931931400,1.238931396484375,0.5705766677856445,-2.690896987915039,-0.21543028950691223
1783337826941904400,1.248904296875,0.4961168169975281,-2.572507381439209,-0.16890034079551697
1783337826951876400,1.25887646484375,0.4012792408466339,-2.4753623008728027,0.23142923414707184
1783337826961849300,1.268849365234375,0.3805675804615021,-2.2525858879089355,0.6655937433242798
1783337826971822600,1.278822509765625,0.42068490386009216,-1.7956478595733643,1.0264182090759277
1783337826981795300,1.28879541015625,0.472811758518219,-1.1615272760391235,1.3007405996322632
1783337826991768300,1.298768310546875,0.45721548795700073,-0.5295400023460388,1.4786927700042725
1783337827001740500,1.308740478515625,0.4747481346130371,-0.24611203372478485,1.5369975566864014
1783337827011713500,1.318713623046875,0.5560033321380615,-0.420619398355484,1.5255883932113647
1783337827021686300,1.328686279296875,0.7043147683143616,-0.8623619079589844,1.4858872890472412
1783337827031659300,1.3386591796875,0.8347308039665222,-1.3446632623672485,1.4079749584197998
1783337827041632500,1.348632568359375,0.87187659740448,-1.665984869003296,1.245016098022461
1783337827051604200,1.358604248046875,0.7089768648147583,-1.723878264427185,0.9799197316169739
1783337827061577200,1.3685771484375,0.3726750314235687,-1.5268707275390625,0.5682865977287292
1783337827071550500,1.378550537109375,-0.022767629474401474,-1.0180891752243042,0.14856258034706116
1783337827081523500,1.3885234375,-0.40597546100616455,-0.2593111991882324,-0.140822634100914
1783337827091496400,1.398496337890625,-0.7706266641616821,0.3161555826663971,-0.2958090305328369
1783337827101469200,1.40846923828125,-1.153721809387207,0.451371967792511,-0.3045247495174408
1783337827111441400,1.41844140625,-1.4092276096343994,0.3761049211025238,-0.038909848779439926
1783337827121414400,1.428414306640625,-1.500084638595581,0.4257265329360962,0.3020842373371124
1783337827131387400,1.438387451171875,-1.5766067504882812,0.2728560268878937,0.5548639893531799
1783337827141360400,1.4483603515625,-1.4675275087356567,-0.03361255303025246,0.6075378656387329
1783337827151333400,1.45833349609375,-1.0643365383148193,-0.19391247630119324,0.4839211404323578
1783337827161305300,1.468305419921875,-0.7021719813346863,-0.16156785190105438,0.40781572461128235
1783337827171278600,1.478278564453125,-0.2741018533706665,-0.1564958691596985,0.4152728319168091
1783337827181251300,1.488251220703125,0.27906838059425354,-0.42257601022720337,0.377169132232666
1783337827191224300,1.498224365234375,0.8233457803726196,-0.5694528222084045,0.31457391381263733
1783337827201197300,1.508197265625,1.2667280435562134,-0.6730988025665283,0.276084303855896
1783337827211170600,1.518170654296875,1.5461612939834595,-0.9440155029296875,0.09778781235218048
1783337827221142300,1.528142333984375,1.4161145687103271,-1.3135559558868408,-0.165593221783638
1783337827231115300,1.538115234375,0.6881262063980103,-1.634732723236084,-0.3868609070777893
1783337827241088500,1.548088623046875,-0.42784321308135986,-1.8942574262619019,-0.5784074068069458
1783337827251061500,1.5580615234375,-1.4892926216125488,-1.8900028467178345,-0.7511629462242126
1783337827261034500,1.568034423828125,-1.9230175018310547,-1.8142683506011963,-0.9449233412742615
1783337827271006500,1.57800634765625,-1.4668028354644775,-1.8846781253814697,-1.1044917106628418
1783337827280979500,1.5879794921875,-0.3858741819858551,-2.041188955307007,-1.2391866445541382
1783337827290952400,1.597952392578125,0.7397318482398987,-1.6657822132110596,-1.1151105165481567
1783337827300925400,1.607925537109375,1.2763042449951172,-0.7470603585243225,-0.12221725285053253
1783337827310898200,1.617898193359375,1.5230638980865479,-0.14977404475212097,1.0831233263015747
1783337827320871400,1.627871337890625,1.6465834379196167,-0.06178347393870354,1.8311687707901
1783337827330843400,1.637843505859375,1.8235790729522705,-0.23336933553218842,2.328404188156128
1783337827340816400,1.64781640625,2.0607893466949463,-0.4035365581512451,2.7196333408355713
1783337827350789400,1.657789306640625,2.4042813777923584,-0.623288631439209,3.0333406925201416
1783337827360762400,1.667762451171875,2.8188858032226562,-1.0750941038131714,3.1807503700256348
1783337827370735400,1.6777353515625,3.135296106338501,-1.7349402904510498,3.099114179611206
1783337827380707600,1.68770751953125,3.2937216758728027,-2.314138174057007,2.783851385116577
1783337827390680300,1.697680419921875,3.392192840576172,-2.613600015640259,2.325310230255127
1783337827400653300,1.7076533203125,3.4854049682617188,-2.5606729984283447,1.7755262851715088
1783337827410626300,1.717626220703125,3.4733712673187256,-2.1935465335845947,1.2705962657928467
1783337827420599600,1.727599609375,3.3604423999786377,-1.6294857263565063,0.9285193681716919
1783337827430571300,1.7375712890625,3.116875410079956,-1.0714373588562012,0.7847675085067749
1783337827440544300,1.747544189453125,2.7408363819122314,-0.6390292048454285,0.8393231630325317
1783337827450517500,1.757517578125,2.2380495071411133,-0.49710938334465027,1.0371958017349243
1783337827460490500,1.767490478515625,1.6671411991119385,-0.594297468662262,1.2588988542556763
1783337827470463200,1.777463134765625,1.1060630083084106,-0.8007200956344604,1.4209413528442383
1783337827480436200,1.787436279296875,0.6325662732124329,-1.0027352571487427,1.4901357889175415
1783337827490408400,1.797408447265625,0.271598219871521,-1.1855839490890503,1.4649442434310913
1783337827500381400,1.80738134765625,0.03153848648071289,-1.263683557510376,1.3466678857803345
1783337827510354200,1.817354248046875,-0.08765847980976105,-1.207194447517395,1.19636070728302
1783337827520327400,1.827327392578125,-0.1275009661912918,-1.0900616645812988,1.0400760173797607
1783337827530300400,1.837300537109375,-0.12090032547712326,-1.0065715312957764,0.8944330215454102
1783337827540273400,1.8472734375,-0.10143847018480301,-0.9599838256835938,0.7942126989364624
1783337827550245400,1.857245361328125,-0.08986304700374603,-0.9421731233596802,0.739396870136261
1783337827560218400,1.86721826171875,-0.09205722063779831,-0.946599006652832,0.7068570256233215
1783337827570191400,1.87719140625,-0.08160724490880966,-0.9085786938667297,0.6486911773681641
1783337827580164400,1.887164306640625,-0.08324082940816879,-0.796410083770752,0.5782771706581116
1783337827590137600,1.8971376953125,-0.09985602647066116,-0.7298765778541565,0.5265173316001892
1783337827600110300,1.9071103515625,-0.09152965247631073,-0.7579833269119263,0.4999917149543762
1783337827610082300,1.917082275390625,-0.03999828174710274,-0.8657545447349548,0.4970491826534271
1783337827620055600,1.9270556640625,0.015662582591176033,-0.9488890767097473,0.49415433406829834
1783337827630028500,1.937028564453125,0.04120336100459099,-0.999127209186554,0.48196664452552795
1783337827640001300,1.947001220703125,0.03976312652230263,-1.0447362661361694,0.47498250007629395
1783337827649974500,1.956974609375,0.015453524887561798,-1.0964218378067017,0.4807889759540558
1783337827659947500,1.966947509765625,-0.007661914452910423,-1.1003323793411255,0.47575774788856506
1783337827669919500,1.97691943359375,-0.05739138647913933,-1.0831856727600098,0.47104981541633606
1783337827679892500,1.986892578125,-0.1403890699148178,-1.0684492588043213,0.4703880250453949
1783337827689865500,1.996865478515625,-0.25393107533454895,-1.0690280199050903,0.47626081109046936
1783337827699838500,2.00683837890625,-0.3805481493473053,-1.0553779602050781,0.47627705335617065
1783337827709811500,2.0168115234375,-0.4613995850086212,-0.9266934990882874,0.5122491717338562
1783337827719783400,2.026783447265625,-0.5710480213165283,-0.7263841032981873,0.5479930639266968
1783337827729756400,2.03675634765625,-0.6417930722236633,-0.4466802775859833,0.5740949511528015
1783337827739729400,2.0467294921875,-0.6375080347061157,-0.17990265786647797,0.6049282550811768
1783337827749702400,2.056702392578125,-0.5067178010940552,0.0008154599345289171,0.6180049180984497
1783337827759675400,2.06667529296875,-0.2668849527835846,0.09726476669311523,0.6015609502792358
1783337827769648600,2.076648681640625,-0.13377857208251953,0.058398593217134476,0.644970178604126
1783337827779620400,2.086620361328125,-0.19142216444015503,0.09047903120517731,0.7038130164146423
1783337827789593300,2.09659326171875,-0.2564797103404999,0.17568926513195038,0.8219857215881348
1783337827799566600,2.106566650390625,-0.32166725397109985,0.4281851649284363,0.8792362213134766
1783337827809539600,2.11653955078125,0.409716933965683,0.754570484161377,0.8242318630218506
1783337827819512300,2.12651220703125,1.1337004899978638,1.0655394792556763,0.6108367443084717
1783337827829485300,2.1364853515625,1.547029733657837,1.0713574886322021,0.4650062918663025
1783337827839457500,2.14645751953125,1.6909451484680176,0.6979511380195618,0.4648182690143585
1783337827849430500,2.156430419921875,1.6768317222595215,0.21153675019741058,0.5805296897888184
1783337827859403300,2.1664033203125,1.6007204055786133,-0.22521661221981049,0.7304105162620544
1783337827869376500,2.17637646484375,1.4958456754684448,-0.5866437554359436,0.8793632388114929
1783337827879349500,2.186349609375,1.3673174381256104,-0.8540456891059875,0.9538289904594421
1783337827889322500,2.196322509765625,1.2052055597305298,-0.9698465466499329,0.9173290133476257
1783337827899294500,2.20629443359375,1.0531129837036133,-0.9582218527793884,0.8263841867446899
1783337827909267500,2.216267333984375,0.9929159283638,-0.677236795425415,0.8442957997322083
1783337827919240400,2.226240478515625,0.9628746509552002,-0.20719286799430847,0.8879868388175964
1783337827929213400,2.23621337890625,0.9685160517692566,0.37375015020370483,0.9102420806884766
1783337827939186700,2.246186767578125,1.1307563781738281,0.866493821144104,0.771233320236206
1783337827949159400,2.256159423828125,1.2715909481048584,1.250995397567749,0.5195766091346741
1783337827959131400,2.26613134765625,1.1557708978652954,1.3983571529388428,0.29836300015449524
1783337827969104600,2.276104736328125,0.7516798973083496,1.0482337474822998,0.26481807231903076
1783337827979077600,2.28607763671875,0.39904138445854187,0.40521860122680664,0.3848568797111511
1783337827989050400,2.29605029296875,0.2739793658256531,-0.2171000987291336,0.49984949827194214
1783337827999023400,2.3060234375,0.2754267752170563,-0.6523115038871765,0.49008768796920776
1783337828008996600,2.31599658203125,0.2978713810443878,-0.8710201382637024,0.37652677297592163
1783337828018968600,2.325968505859375,0.27878183126449585,-0.908420741558075,0.21475037932395935
1783337828028941300,2.33594140625,0.2525366544723511,-0.8413344025611877,0.06718116998672485
1783337828038914600,2.34591455078125,0.2657299339771271,-0.7094775438308716,-0.017194965854287148
1783337828048887600,2.355887451171875,0.27960607409477234,-0.5205233693122864,-0.03710741922259331
1783337828058860500,2.365860595703125,0.2601698040962219,-0.32607051730155945,0.034688472747802734
1783337828068833500,2.37583349609375,0.18270297348499298,-0.1685996651649475,0.20439335703849792
1783337828078805500,2.385805419921875,0.10861702263355255,-0.09769566357135773,0.44364801049232483
1783337828088778500,2.395778564453125,0.10622097551822662,-0.020536433905363083,0.6700800657272339
1783337828098751500,2.40575146484375,0.15432965755462646,0.15503831207752228,0.7924757599830627
1783337828108724500,2.415724365234375,0.1981237381696701,0.32559993863105774,0.8091117143630981
1783337828118697500,2.425697509765625,0.21265020966529846,0.4315556585788727,0.7452342510223389
1783337828128670500,2.43567041015625,0.19318197667598724,0.467241495847702,0.6175814867019653
1783337828138642400,2.445642333984375,0.14035631716251373,0.42203620076179504,0.45367667078971863
1783337828148615400,2.455615478515625,0.07477916777133942,0.30035343766212463,0.27053481340408325
1783337828158588400,2.46558837890625,0.023876303806900978,0.14500512182712555,0.10888440907001495
1783337828168561400,2.4755615234375,0.007434480357915163,0.028255606070160866,-0.002445314545184374
1783337828178534400,2.485534423828125,0.010347978211939335,-0.031930502504110336,-0.040534909814596176
1783337828188507600,2.495507568359375,0.020846160128712654,-0.06863658130168915,-0.000746750389225781
1783337828198479400,2.505479248046875,0.04264093562960625,-0.1030837744474411,0.10475384443998337
1783337828208452400,2.515452392578125,0.07547371834516525,-0.126404270529747,0.23311075568199158
1783337828218425600,2.525425537109375,0.11385758966207504,-0.149583101272583,0.35251331329345703
1783337828228398600,2.535398681640625,0.1360963135957718,-0.18981388211250305,0.44384056329727173
1783337828238371300,2.545371337890625,0.1569906771183014,-0.24577008187770844,0.5047499537467957
1783337828248344300,2.55534423828125,0.17869225144386292,-0.2933346629142761,0.5508506298065186
1783337828258317600,2.565317626953125,0.2071276158094406,-0.30367040634155273,0.5967845916748047
1783337828268289500,2.57528955078125,0.22771784663200378,-0.2568959593772888,0.6473212242126465
1783337828278262300,2.58526220703125,0.23333978652954102,-0.16637060046195984,0.7026233673095703
1783337828288235500,2.595235595703125,0.2341022491455078,-0.054240334779024124,0.7560783624649048
1783337828298208500,2.60520849609375,0.23359490931034088,0.060626063495874405,0.795742392539978
1783337828308181500,2.615181396484375,0.24430108070373535,0.17069584131240845,0.8006300926208496
1783337828318154500,2.625154541015625,0.2604350447654724,0.2676945626735687,0.7645946145057678
1783337828328126500,2.63512646484375,0.2689632773399353,0.3336234986782074,0.6953396201133728
1783337828338099500,2.645099365234375,0.2706400156021118,0.3475915193557739,0.61021888256073
1783337828348072400,2.655072509765625,0.2636244595050812,0.3067846894264221,0.5238310098648071
1783337828358045700,2.665045654296875,0.25227487087249756,0.22884570062160492,0.4409236013889313
1783337828368018400,2.675018310546875,0.24046853184700012,0.13770459592342377,0.36675670742988586
1783337828377991400,2.684991455078125,0.23201565444469452,0.04902426898479462,0.30616098642349243
1783337828387963600,2.694963623046875,0.23266173899173737,-0.029110480099916458,0.26120710372924805
1783337828397936600,2.7049365234375,0.23305828869342804,-0.08395535498857498,0.23411555588245392
1783337828407909400,2.714909423828125,0.23028406500816345,-0.11517026275396347,0.2162225842475891
1783337828417882400,2.72488232421875,0.22704513370990753,-0.12643064558506012,0.21108373999595642
1783337828427855600,2.734855712890625,0.2273668497800827,-0.12701120972633362,0.20709672570228577
1783337828437828600,2.74482861328125,0.2299831360578537,-0.11167380213737488,0.1978078931570053
1783337828447800300,2.75480029296875,0.24296711385250092,-0.07749399542808533,0.18047283589839935
1783337828457773600,2.764773681640625,0.2563990354537964,-0.03455105423927307,0.1666896492242813
1783337828467746600,2.77474658203125,0.25540512800216675,0.02208506129682064,0.17565704882144928
1783337828477719600,2.784719482421875,0.23692093789577484,0.13159345090389252,0.22212068736553192
1783337828487692300,2.7946923828125,0.2045174539089203,0.32481005787849426,0.27375563979148865
1783337828497665300,2.804665283203125,0.17085109651088715,0.5540919899940491,0.29111039638519287
1783337828507637500,2.814637451171875,0.13620737195014954,0.7346452474594116,0.25202426314353943
1783337828517610500,2.824610595703125,0.09423115849494934,0.8179832696914673,0.16120833158493042
1783337828527583500,2.83458349609375,0.05511758103966713,0.7724677324295044,0.03267698734998703
1783337828537556500,2.844556396484375,0.018923090770840645,0.5938351154327393,-0.1013583093881607
1783337828547529500,2.854529541015625,-0.042329613119363785,0.3344610631465912,-0.22919084131717682
1783337828557502500,2.86450244140625,-0.12220979481935501,0.05548696219921112,-0.36649250984191895
1783337828567475500,2.874475341796875,-0.2256576269865036,-0.16639403998851776,-0.5206248164176941
1783337828577447400,2.884447509765625,-0.37185823917388916,-0.3131760358810425,-0.6824294328689575
1783337828587420400,2.89442041015625,-0.551264762878418,-0.36794206500053406,-0.8423812985420227
1783337828597393400,2.904393310546875,-0.7465463876724243,-0.3449491262435913,-1.0050666332244873
1783337828607366700,2.91436669921875,-0.943230926990509,-0.2951482832431793,-1.176115870475769
1783337828617339400,2.92433935546875,-1.1349116563796997,-0.20063376426696777,-1.3520240783691406
1783337828627312400,2.9343125,-1.3098413944244385,-0.08730480819940567,-1.5328766107559204
1783337828637284600,2.94428466796875,-1.4696416854858398,0.015925437211990356,-1.707746148109436
1783337828647257300,2.95425732421875,-1.5606752634048462,0.18610355257987976,-1.9147337675094604
1783337828657230300,2.964230224609375,-1.5640926361083984,0.4307873547077179,-2.138629674911499
1783337828667203300,2.974203369140625,-1.5037049055099487,0.6797947883605957,-2.2999892234802246
1783337828677176300,2.98417626953125,-1.4083682298660278,0.9176470041275024,-2.395583391189575
1783337828687149300,2.9941494140625,-1.2573750019073486,1.1883107423782349,-2.4517829418182373
1783337828697122300,3.004122314453125,-1.0564565658569336,1.4441323280334473,-2.4395341873168945
1783337828707094500,3.014094482421875,-0.8178397417068481,1.6826698780059814,-2.3736870288848877
1783337828717067300,3.0240673828125,-0.5207606554031372,1.9284093379974365,-2.2201061248779297
1783337828727040300,3.034040283203125,-0.2077995389699936,2.16410756111145,-1.9719657897949219
1783337828737013200,3.04401318359375,0.060754694044589996,2.280325174331665,-1.6047627925872803
1783337828746986500,3.053986572265625,0.17442825436592102,1.98121976852417,-1.087429404258728
1783337828756959500,3.06395947265625,0.10421881079673767,1.2285548448562622,-0.531697154045105
1783337828766931200,3.07393115234375,-0.09744027256965637,0.3620671331882477,-0.1098008006811142
1783337828776904400,3.083904541015625,-0.3438180983066559,-0.6029993295669556,0.16394419968128204
1783337828786877400,3.09387744140625,-0.6131851077079773,-1.4456639289855957,0.11706190556287766
1783337828796850400,3.103850341796875,-0.9139545559883118,-1.8256163597106934,-0.1456674486398697
1783337828806823200,3.1138232421875,-1.1980674266815186,-1.775130033493042,-0.48405057191848755
1783337828816796400,3.12379638671875,-1.366443157196045,-1.6996374130249023,-0.6547056436538696
1783337828826768400,3.133768310546875,-1.4420218467712402,-1.8113279342651367,-0.5684069991111755
1783337828836741400,3.143741455078125,-1.451686978340149,-1.957527995109558,-0.34327587485313416
1783337828846714400,3.15371435546875,-1.4027162790298462,-2.1442811489105225,-0.10042940080165863
1783337828856687400,3.163687255859375,-1.2806826829910278,-2.408069610595703,0.10022380948066711
1783337828866660400,3.173660400390625,-1.0823116302490234,-2.717266321182251,0.2417902648448944
1783337828876633300,3.18363330078125,-0.816440999507904,-2.9938480854034424,0.33065035939216614
1783337828886606300,3.1936064453125,-0.5528138875961304,-3.079793691635132,0.37350380420684814
1783337828896578300,3.203578369140625,-0.37240418791770935,-3.0233242511749268,0.4231959879398346
1783337828906551300,3.21355126953125,-0.27097663283348083,-2.9729373455047607,0.4855925440788269
1783337828916524300,3.223524169921875,-0.21025682985782623,-2.8642385005950928,0.5292803645133972
1783337828926497500,3.23349755859375,-0.14636440575122833,-2.668957233428955,0.528705894947052
1783337828936470300,3.24347021484375,-0.06869970262050629,-2.5096487998962402,0.4716487526893616
1783337828946443300,3.253443359375,-0.0112196309491992,-2.4401237964630127,0.38841912150382996
1783337828956415500,3.26341552734375,0.03466290608048439,-2.371061086654663,0.3017728924751282
1783337828966388500,3.273388427734375,0.09713933616876602,-2.2859795093536377,0.25915032625198364
1783337828976361200,3.283361328125,0.1521325409412384,-2.19803524017334,0.2607317268848419
1783337828986334200,3.293334228515625,0.19947102665901184,-2.0656449794769287,0.2838045656681061
1783337828996307500,3.303307373046875,0.23387160897254944,-1.8583303689956665,0.3298950791358948
1783337829006280400,3.313280517578125,0.207564115524292,-1.5495408773422241,0.39325329661369324
1783337829016253200,3.323253173828125,0.15292297303676605,-1.1343183517456055,0.47175103425979614
1783337829026225400,3.333225341796875,0.10620473325252533,-0.6360845565795898,0.5500996112823486
1783337829036198400,3.343198486328125,0.030044184997677803,-0.17081567645072937,0.6145662069320679
1783337829046171400,3.35317138671875,0.0402534119784832,0.07941759377717972,0.6481516361236572
1783337829056144100,3.36314404296875,0.12837208807468414,0.18665003776550293,0.6373559832572937
1783337829066117400,3.373117431640625,0.22290737926959991,0.2297639548778534,0.6105328798294067
1783337829076090400,3.38309033203125,0.24523478746414185,0.2939506769180298,0.5818000435829163
1783337829086063400,3.3930634765625,0.18631288409233093,0.3590599000453949,0.5552815794944763
1783337829096035300,3.403035400390625,0.06955350935459137,0.4432655870914459,0.5225851535797119
1783337829106008300,3.41300830078125,-0.09623518586158752,0.5801565647125244,0.4624243676662445
1783337829115981300,3.422981201171875,-0.3158471882343292,0.8223018646240234,0.36016562581062317
1783337829125954300,3.432954345703125,-0.5601948499679565,1.1722830533981323,0.21236605942249298
1783337829135927600,3.442927490234375,-0.7910150289535522,1.5050172805786133,0.06368816643953323
1783337829145900300,3.452900390625,-0.9201812744140625,1.5214250087738037,-0.021934326738119125
1783337829155872300,3.462872314453125,-0.8986977934837341,1.1356281042099,-0.002520415699109435
1783337829165845500,3.472845458984375,-0.77751624584198,0.5872174501419067,0.1522398740053177
1783337829175818500,3.482818603515625,-0.5062850117683411,0.13347044587135315,0.3760465979576111
1783337829185791200,3.492791259765625,-0.0843963697552681,-0.10703404247760773,0.5810061097145081
1783337829195764200,3.50276416015625,0.33292895555496216,-0.22768428921699524,0.7242120504379272
1783337829205737500,3.512737548828125,0.587946355342865,-0.3256406784057617,0.8016506433486938
1783337829215710500,3.52271044921875,0.7526156902313232,-0.45520079135894775,0.8152180910110474
1783337829225682200,3.53268212890625,0.8677161931991577,-0.5634298324584961,0.773017942905426
1783337829235655400,3.542655517578125,0.9632006287574768,-0.6533131003379822,0.7072258591651917
1783337829245628400,3.55262841796875,1.0648276805877686,-0.7337629199028015,0.6347468495368958
1783337829255601400,3.562601318359375,1.1342495679855347,-0.8469606041908264,0.5502980351448059
1783337829265574400,3.572574462890625,1.096021056175232,-0.9345197081565857,0.44218432903289795
1783337829275547400,3.58254736328125,0.9336552619934082,-0.9203360080718994,0.2962106168270111
1783337829285519400,3.592519287109375,0.7028729319572449,-0.7552027106285095,0.1625332534313202
1783337829295492400,3.602492431640625,0.47219789028167725,-0.47127166390419006,0.12705355882644653
1783337829305465300,3.61246533203125,0.29978883266448975,-0.10938721150159836,0.2039528638124466
1783337829315438300,3.622438232421875,0.21013805270195007,0.24005787074565887,0.3775576651096344
1783337829325411300,3.632411376953125,0.23160873353481293,0.5050482749938965,0.5972263813018799
1783337829335384300,3.64238427734375,0.33574044704437256,0.6436253190040588,0.8177390694618225
1783337829345357300,3.652357421875,0.43560686707496643,0.6729323267936707,0.9646667242050171
1783337829355329300,3.662329345703125,0.4894040524959564,0.6080902218818665,0.9860337972640991
1783337829365302300,3.67230224609375,0.46453598141670227,0.4762802720069885,0.8991646766662598
1783337829375275300,3.682275146484375,0.40792250633239746,0.2915990948677063,0.7312281131744385
1783337829385248500,3.69224853515625,0.4338579773902893,0.032526250928640366,0.5182799100875854
1783337829395221200,3.70222119140625,0.5366429090499878,-0.34102657437324524,0.3208741545677185
1783337829405194200,3.7121943359375,0.6319260597229004,-0.8777397871017456,0.1390867829322815
1783337829415167200,3.722167236328125,0.6470133662223816,-1.5386549234390259,-0.0014583469601348042
1783337829425139500,3.732139404296875,0.564419150352478,-2.0779035091400146,-0.0855732262134552
1783337829435112200,3.7421123046875,0.47105246782302856,-2.3539581298828125,-0.1120130866765976
1783337829445085200,3.752085205078125,0.41726967692375183,-2.3557167053222656,-0.09958784282207489
1783337829455058400,3.762058349609375,0.3374669849872589,-2.1169233322143555,-0.058572765439748764
1783337829465031400,3.772031494140625,0.2364029437303543,-1.7081032991409302,0.0033891387283802032
1783337829475004400,3.78200439453125,0.15368330478668213,-1.2049442529678345,0.08269114792346954
1783337829484977200,3.79197705078125,0.0952969565987587,-0.6326480507850647,0.17353397607803345
1783337829494949400,3.801949462890625,0.048165664076805115,-0.03615134581923485,0.27589336037635803
1783337829504922400,3.81192236328125,0.0013795174891129136,0.5271034836769104,0.42035067081451416
1783337829514895400,3.821895263671875,-0.029582126066088676,1.0464385747909546,0.6372185349464417
1783337829524868400,3.831868408203125,-0.03930426388978958,1.517791986465454,0.9030475616455078
1783337829534841300,3.84184130859375,-0.00293267285451293,1.911057710647583,1.1558552980422974
1783337829544814300,3.851814453125,0.07564256340265274,2.1872494220733643,1.3159914016723633
1783337829554786600,3.86178662109375,0.15885382890701294,2.330050230026245,1.351560115814209
1783337829564759300,3.87175927734375,0.19143706560134888,2.3289096355438232,1.2674169540405273
1783337829574732300,3.881732177734375,0.1587321162223816,2.1582794189453125,1.0751439332962036
1783337829584705300,3.891705322265625,0.07208111882209778,1.8143479824066162,0.8095722198486328
1783337829594678500,3.901678466796875,-0.01810310408473015,1.3177592754364014,0.5133176445960999
1783337829604651500,3.911651611328125,-0.07952278852462769,0.7400948405265808,0.24345552921295166
1783337829614624300,3.921624267578125,-0.11560782045125961,0.23148036003112793,0.06035681813955307
1783337829624596500,3.931596435546875,-0.11912851780653,-0.1370641142129898,-0.024508006870746613
1783337829634569500,3.941569580078125,-0.08319848030805588,-0.390322744846344,-0.028843898326158524
1783337829644542000,3.9515419921875,-0.03515239432454109,-0.5534639954566956,0.005123655777424574
1783337829654515000,3.961514892578125,0.0009275790071114898,-0.6398478746414185,0.051293015480041504
1783337829664488200,3.97148828125,0.01804265007376671,-0.6608802080154419,0.09844827651977539
1783337829674461000,3.9814609375,0.0439770445227623,-0.6100606918334961,0.13810540735721588
1783337829684434000,3.991433837890625,0.09034108370542526,-0.49053484201431274,0.18457171320915222
1783337829694406100,4.00140625,0.14134913682937622,-0.3013286888599396,0.24375353753566742
1783337829704379100,4.011379150390625,0.18059082329273224,-0.06774628907442093,0.3046525716781616
1783337829714351900,4.021351806640625,0.21448034048080444,0.19035449624061584,0.3688344955444336
1783337829724324900,4.031324951171875,0.2561263144016266,0.4232679009437561,0.4480361044406891
1783337829734298000,4.041298095703125,0.29962825775146484,0.5802143812179565,0.5398826599121094
1783337829744271000,4.05127099609375,0.33643287420272827,0.6489849090576172,0.6284748315811157
1783337829754244000,4.061244140625,0.36627280712127686,0.6576854586601257,0.6900673508644104
1783337829764216000,4.071216064453125,0.38872429728507996,0.629410982131958,0.7234266400337219
1783337829774189000,4.08118896484375,0.3956855535507202,0.5695934295654297,0.7259305715560913
1783337829784162000,4.091162109375,0.3862321376800537,0.496084064245224,0.7027701139450073
1783337829794134800,4.101134765625,0.365963876247406,0.42747968435287476,0.6660645604133606
1783337829804108000,4.11110791015625,0.34520238637924194,0.3737970292568207,0.6234718561172485
1783337829814081000,4.1210810546875,0.32364171743392944,0.33746352791786194,0.5862589478492737
1783337829824053000,4.131052978515625,0.32616719603538513,0.30625686049461365,0.5457621216773987
1783337829834026000,4.14102587890625,0.3554143011569977,0.27652373909950256,0.4989951550960541
1783337829843999000,4.1509990234375,0.3825622797012329,0.24122966825962067,0.4474922716617584
1783337829853972000,4.160971923828125,0.3854595422744751,0.20117758214473724,0.39515024423599243
1783337829863945000,4.170945068359375,0.36412736773490906,0.15216903388500214,0.3475683629512787
1783337829873918000,4.18091796875,0.32726815342903137,0.1038995012640953,0.308509886264801
1783337829883891000,4.190890869140625,0.2803642749786377,0.0631994754076004,0.27790936827659607
1783337829893863000,4.20086279296875,0.22086021304130554,0.03496597334742546,0.2527105510234833
1783337829903836000,4.2108359375,0.15587562322616577,0.03916098549962044,0.23342420160770416
1783337829913809200,4.22080908203125,0.07564789056777954,0.10522202402353287,0.2019786685705185
1783337829923782000,4.230781982421875,-0.014741928316652775,0.25018322467803955,0.14218324422836304
1783337829933755000,4.2407548828125,-0.09347562491893768,0.44740280508995056,0.04190004616975784
1783337829943727900,4.250727783203125,-0.14298005402088165,0.6331686973571777,-0.10232557356357574
1783337829953701000,4.260701171875,-0.17058078944683075,0.7277620434761047,-0.2658205032348633
1783337829963672800,4.2706728515625,-0.21273969113826752,0.6835018992424011,-0.4088282585144043
1783337829973645800,4.280645751953125,-0.2806878685951233,0.5161011815071106,-0.5148292779922485
1783337829983619000,4.290619140625,-0.3780090808868408,0.26674142479896545,-0.5909503698348999
1783337829993592000,4.300592041015625,-0.4948635399341583,0.005450159311294556,-0.6513375639915466
1783337830003565000,4.31056494140625,-0.6281360983848572,-0.19959886372089386,-0.7126126289367676
1783337830013537800,4.320537841796875,-0.7769237160682678,-0.32099851965904236,-0.810309886932373
1783337830023511000,4.330510986328125,-0.9277430772781372,-0.3533519506454468,-0.9435150623321533
1783337830033483000,4.34048291015625,-1.062108039855957,-0.29383453726768494,-1.0931589603424072
1783337830043456000,4.3504560546875,-1.1646325588226318,-0.1669495701789856,-1.2486352920532227
1783337830053429000,4.360428955078125,-1.221130132675171,-0.005212338641285896,-1.3873556852340698
1783337830063402000,4.370402099609375,-1.2395280599594116,0.22398675978183746,-1.5031520128250122
1783337830073375000,4.380375,-1.2239065170288086,0.47734126448631287,-1.5836350917816162
1783337830083348000,4.390347900390625,-1.1635427474975586,0.7164316177368164,-1.6395574808120728
1783337830093320000,4.40031982421875,-1.0944942235946655,1.033485770225525,-1.740018367767334
1783337830103293000,4.41029296875,-1.0375195741653442,1.3822228908538818,-1.8649861812591553
1783337830113266000,4.420265869140625,-0.9647186398506165,1.6731317043304443,-1.9804794788360596
1783337830123239200,4.4302392578125,-0.8579866290092468,1.8551009893417358,-2.05246639251709
1783337830133212200,4.440212158203125,-0.7455862760543823,1.9463499784469604,-2.071871042251587
1783337830143185000,4.450184814453125,-0.6446865797042847,1.9465563297271729,-2.0215702056884766
1783337830153158000,4.460157958984375,-0.5662516951560974,1.862259864807129,-1.8997653722763062
1783337830163130000,4.470130126953125,-0.5160892009735107,1.6431865692138672,-1.6849391460418701
1783337830173102800,4.480102783203125,-0.4895920753479004,1.1594308614730835,-1.340715765953064
1783337830183075800,4.490075927734375,-0.4725915193557739,0.5187888145446777,-0.9291987419128418
1783337830193048800,4.500048828125,-0.46367311477661133,-0.021864818409085274,-0.5967555642127991
1783337830203022000,4.51002197265625,-0.4752320349216461,-0.4378441870212555,-0.3435288667678833
1783337830212995000,4.5199951171875,-0.5618026256561279,-0.7385768294334412,-0.19374416768550873
1783337830222967800,4.5299677734375,-0.7462038993835449,-0.8500160574913025,-0.20965202152729034
1783337830232940000,4.53993994140625,-1.0132396221160889,-0.7683089375495911,-0.33375027775764465
1783337830242913000,4.5499130859375,-1.2691187858581543,-0.6417648196220398,-0.4215541481971741
1783337830252886000,4.559885986328125,-1.3986825942993164,-0.6313390731811523,-0.3796919286251068
1783337830262858800,4.569858642578125,-1.4078094959259033,-0.7956518530845642,-0.2633879482746124
1783337830272832000,4.57983203125,-1.303665041923523,-1.0756577253341675,-0.14800624549388885
1783337830282805000,4.589804931640625,-1.1261498928070068,-1.4437872171401978,-0.05848514661192894
1783337830292778000,4.599778076171875,-0.9293369650840759,-1.790297508239746,0.027711788192391396
1783337830302750000,4.60975,-0.7519504427909851,-2.038419723510742,0.10672777891159058
1783337830312723000,4.619722900390625,-0.6020192503929138,-2.237112283706665,0.1847727745771408
1783337830322696000,4.629696044921875,-0.48149898648262024,-2.3561105728149414,0.22553405165672302
1783337830332669000,4.6396689453125,-0.36578118801116943,-2.318776845932007,0.20639684796333313
1783337830342642200,4.64964208984375,-0.28618142008781433,-2.1395204067230225,0.16766276955604553
1783337830352615000,4.659614990234375,-0.23878967761993408,-2.000555992126465,0.1314416527748108
1783337830362587000,4.6695869140625,-0.1791822761297226,-1.893178939819336,0.09374699741601944
1783337830372560100,4.67956005859375,-0.10013005882501602,-1.7529903650283813,0.07814859598875046
1783337830382533000,4.689533203125,-0.03202957287430763,-1.5836665630340576,0.12424524873495102
1783337830392505900,4.699505859375,0.015923039987683296,-1.4024291038513184,0.22152359783649445
1783337830402478800,4.709478759765625,0.07711902260780334,-1.1849998235702515,0.32205528020858765
1783337830412452000,4.7194521484375,0.1431148201227188,-0.9396516680717468,0.41856661438941956
1783337830422425000,4.729425048828125,0.18964582681655884,-0.7089750170707703,0.5023443698883057
1783337830432396800,4.739396728515625,0.24048450589179993,-0.512107789516449,0.5587892532348633
1783337830442370000,4.7493701171875,0.3178514838218689,-0.29174262285232544,0.5819904208183289
1783337830452343000,4.759343017578125,0.3973763883113861,-0.07528570294380188,0.5710786581039429
1783337830462316000,4.76931591796875,0.43690595030784607,0.08811894059181213,0.5153754353523254
1783337830472289000,4.7792890625,0.45648258924484253,0.13714294135570526,0.3994981348514557
1783337830482262000,4.789261962890625,0.4539019763469696,0.07033328711986542,0.25638332962989807
1783337830492235000,4.799235107421875,0.3795856833457947,-0.002116147894412279,0.12809352576732635
1783337830502207000,4.80920703125,0.22067086398601532,0.013512346893548965,0.07132983952760696
1783337830512180000,4.819179931640625,0.0033047166652977467,0.08494924753904343,0.10241691768169403
1783337830522153000,4.829153076171875,-0.2362482249736786,0.24712589383125305,0.16843880712985992
1783337830532126000,4.8391259765625,-0.4673735797405243,0.502775251865387,0.18752914667129517
1783337830542099000,4.849098876953125,-0.6547141671180725,0.8227021098136902,0.10924020409584045
1783337830552072000,4.859072021484375,-0.8114566802978516,1.1292204856872559,-0.036613669246435165
1783337830562045000,4.869044921875,-0.8805427551269531,1.2523744106292725,-0.15156102180480957
1783337830572017000,4.879016845703125,-0.8091785907745361,1.100760579109192,-0.12300422042608261
1783337830581990000,4.888989990234375,-0.5676871538162231,0.6972547173500061,0.06037279590964317
1783337830591963100,4.898963134765625,-0.20286895334720612,0.21895071864128113,0.3135392665863037
1783337830601936000,4.908935791015625,0.20230036973953247,-0.1570250391960144,0.5537422895431519
1783337830611908900,4.918908935546875,0.4777489900588989,-0.34134799242019653,0.7497820854187012
1783337830621881900,4.9288818359375,0.6717872023582458,-0.43708038330078125,0.877934992313385
1783337830631855000,4.938855224609375,0.8199627995491028,-0.5204439759254456,0.9330107569694519
1783337830641826800,4.948826904296875,0.9191436767578125,-0.6018738746643066,0.9139121770858765
1783337830651800600,4.958800537109375,0.9841775894165039,-0.684939444065094,0.8580097556114197
1783337830661773600,4.968773681640625,1.0604108572006226,-0.7955490350723267,0.8198871612548828
1783337830671746800,4.978746826171875,1.1476624011993408,-0.9647745490074158,0.8248494267463684
1783337830681719600,4.988719482421875,1.190018653869629,-1.1609760522842407,0.8208932876586914
1783337830691692500,4.998692626953125,1.0983701944351196,-1.2996907234191895,0.734627902507782
1783337830701665500,5.00866552734375,0.8683156967163086,-1.3007570505142212,0.5808029174804688
1783337830711637800,5.0186376953125,0.5502937436103821,-1.1648879051208496,0.42666369676589966
1783337830721610500,5.028610595703125,0.2417074292898178,-0.872169017791748,0.30845263600349426
1783337830731583500,5.03858349609375,0.028487566858530045,-0.46635839343070984,0.25497183203697205
1783337830741556700,5.048556640625,-0.0347590446472168,-0.02287309058010578,0.27835813164711
1783337830751529700,5.05852978515625,0.057486727833747864,0.3859412968158722,0.3639766275882721
1783337830761502700,5.068502685546875,0.2340894639492035,0.6704609394073486,0.4903673231601715
1783337830771474700,5.078474609375,0.4288754463195801,0.7523770928382874,0.6329582929611206
1783337830781447700,5.08844775390625,0.5670881867408752,0.6978331804275513,0.720207691192627
1783337830791420700,5.098420654296875,0.6143742203712463,0.4966888725757599,0.7090378999710083
1783337830801393700,5.1083935546875,0.5967427492141724,0.1216776967048645,0.5882619023323059
1783337830811366700,5.11836669921875,0.5732645988464355,-0.4143388569355011,0.37982988357543945
1783337830821339600,5.128339599609375,0.6078041791915894,-1.0264619588851929,0.1491125226020813
1783337830831312600,5.138312744140625,0.6875959634780884,-1.5821930170059204,-0.01974387653172016
1783337830841284900,5.148284912109375,0.7402027249336243,-1.9154160022735596,-0.09614331275224686
1783337830851257600,5.158257568359375,0.7244184017181396,-2.028907060623169,-0.11318088322877884
1783337830861230600,5.168230712890625,0.6239440441131592,-2.0053281784057617,-0.10717705637216568
1783337830871203600,5.17820361328125,0.4631950855255127,-1.8486920595169067,-0.07821224629878998
1783337830881176800,5.1881767578125,0.3043263256549835,-1.5575207471847534,-0.022948725149035454
1783337830891149600,5.198149658203125,0.16991207003593445,-1.0845896005630493,0.056292567402124405
1783337830901122600,5.20812255859375,0.04934358224272728,-0.4255552887916565,0.1473066359758377
1783337830911094800,5.2180947265625,-0.02840128168463707,0.33744966983795166,0.236333966255188
1783337830921067800,5.22806787109375,-0.04891827329993248,1.0501949787139893,0.3508445620536804
1783337830931040500,5.23804052734375,-0.06866694241762161,1.6435437202453613,0.5005003809928894
1783337830941013500,5.248013427734375,-0.0983409509062767,2.161287307739258,0.6987476944923401
1783337830950986500,5.257986572265625,-0.12360795587301254,2.6427674293518066,0.936208963394165
1783337830960959700,5.267959716796875,-0.12214002013206482,3.0838701725006104,1.1558294296264648
1783337830970932700,5.2779326171875,-0.06752604991197586,3.429291009902954,1.270197868347168
1783337830980904700,5.28790478515625,0.014884939417243004,3.611314296722412,1.2291185855865479
1783337830990877700,5.297877685546875,0.059541091322898865,3.58099102973938,1.052612543106079
1783337831001474600,5.308474609375,0.01890524849295616,3.251235008239746,0.7718700766563416
1783337831011447600,5.318447509765625,-0.06057466194033623,2.6501646041870117,0.4892890155315399
1783337831021420800,5.3284208984375,-0.12506364285945892,1.848114252090454,0.24088291823863983
1783337831031392500,5.338392578125,-0.13964897394180298,0.9858369827270508,0.05861111357808113
1783337831041365500,5.348365478515625,-0.1106404960155487,0.2345810830593109,-0.07682394236326218
1783337831051338800,5.3583388671875,-0.0661606416106224,-0.3109956979751587,-0.16454820334911346
1783337831061311700,5.368311767578125,-0.006589459255337715,-0.6385772824287415,-0.20405060052871704
1783337831071284500,5.378284423828125,0.04597974196076393,-0.7843906879425049,-0.19788724184036255
1783337831081257500,5.388257568359375,0.0675492137670517,-0.8261000514030457,-0.15218260884284973
1783337831091230700,5.398230712890625,0.06760567426681519,-0.7623418569564819,-0.06393077969551086
1783337831101202700,5.40820263671875,0.05289383977651596,-0.5540735721588135,0.06210411712527275
1783337831111175400,5.418175537109375,0.06034163758158684,-0.2142995148897171,0.21124699711799622
1783337831121148700,5.428148681640625,0.10635919868946075,0.21378526091575623,0.3599046468734741
1783337831131121700,5.43812158203125,0.17087134718894958,0.629500687122345,0.499602347612381
1783337831141094700,5.4480947265625,0.20428016781806946,0.9322366118431091,0.6109419465065002
1783337831151067600,5.458067626953125,0.21961277723312378,1.1049830913543701,0.6954070329666138
1783337831161040600,5.46804052734375,0.24544118344783783,1.1712456941604614,0.7557326555252075
1783337831171012600,5.4780126953125,0.2844506502151489,1.1654338836669922,0.7986332774162292
1783337831180985600,5.487985595703125,0.32254743576049805,1.102004885673523,0.8220241069793701
1783337831190958800,5.497958740234375,0.34581759572029114,0.9656752347946167,0.8288697600364685
1783337831200931600,5.507931640625,0.35773417353630066,0.76346355676651,0.81426602602005
1783337831210904600,5.517904541015625,0.36562004685401917,0.5189012289047241,0.7706144452095032
1783337831220877600,5.527877685546875,0.37365373969078064,0.27022987604141235,0.696739137172699
1783337831230849800,5.537849853515625,0.382922887802124,0.059478506445884705,0.6012166142463684
1783337831240822500,5.547822509765625,0.3885570764541626,-0.08797246962785721,0.4994969069957733
1783337831250795500,5.55779541015625,0.3702712655067444,-0.1688031256198883,0.41223204135894775
1783337831260768800,5.567768798828125,0.3393530249595642,-0.19174893200397491,0.3319965898990631
1783337831270741800,5.57774169921875,0.3186482787132263,-0.17310546338558197,0.25664404034614563
1783337831280714800,5.58771484375,0.3003060221672058,-0.11613991856575012,0.2055233269929886
1783337831290687500,5.5976875,0.25313079357147217,-0.02929903194308281,0.1975298523902893
1783337831300659700,5.60765966796875,0.16692666709423065,0.06569645553827286,0.21429738402366638
1783337831310632700,5.6176328125,0.0627020001411438,0.1577126681804657,0.23069819808006287
1783337831320605700,5.627605712890625,-0.03761555254459381,0.2472369521856308,0.22931228578090668
1783337831330578700,5.63757861328125,-0.11821319162845612,0.34378212690353394,0.1987208127975464
1783337831340551700,5.6475517578125,-0.17706798017024994,0.4820907413959503,0.13940688967704773
1783337831350524700,5.657524658203125,-0.21396422386169434,0.6900085210800171,0.06870848685503006
1783337831361119700,5.66811962890625,-0.22643287479877472,0.9487923979759216,-0.01221725158393383
1783337831371092500,5.678092529296875,-0.23049712181091309,1.1455672979354858,-0.0809643566608429
1783337831381065700,5.688065673828125,-0.246848925948143,1.2404093742370605,-0.12355203181505203
1783337831391038700,5.698038818359375,-0.27488136291503906,1.2368888854980469,-0.15475229918956757
1783337831401011700,5.70801171875,-0.3068678081035614,1.1585736274719238,-0.20248626172542572
1783337831410984700,5.717984619140625,-0.3329704999923706,1.0383933782577515,-0.2856197655200958
1783337831420956700,5.727956787109375,-0.3736018240451813,0.8924449682235718,-0.42492014169692993
1783337831430929700,5.7379296875,-0.4511195123195648,0.7383419871330261,-0.6194448471069336
1783337831440902700,5.747902587890625,-0.5576944351196289,0.591084361076355,-0.851033627986908
1783337831450875600,5.757875732421875,-0.6781236529350281,0.48503780364990234,-1.0974417924880981
1783337831460848600,5.7678486328125,-0.8004317283630371,0.43270403146743774,-1.3192805051803589
1783337831470821600,5.777821533203125,-0.9193524718284607,0.4508720934391022,-1.502852439880371
1783337831480794600,5.787794677734375,-1.0148060321807861,0.540888249874115,-1.6393884420394897
1783337831490766600,5.7977666015625,-1.0802878141403198,0.6928974986076355,-1.716867208480835
1783337831500739600,5.807739501953125,-1.138778567314148,0.8782879114151001,-1.7680894136428833
1783337831510712600,5.817712646484375,-1.1982156038284302,1.0507206916809082,-1.8211904764175415
1783337831520685600,5.827685546875,-1.2467577457427979,1.3298768997192383,-1.9159494638442993
1783337831530658800,5.837658935546875,-1.2637804746627808,1.6671180725097656,-2.0562121868133545
1783337831540631600,5.847631591796875,-1.2512636184692383,1.9621834754943848,-2.2130870819091797
1783337831550604500,5.8576044921875,-1.2148603200912476,2.182379961013794,-2.344074249267578
1783337831560576800,5.86757666015625,-1.1241652965545654,2.36144757270813,-2.4250776767730713
1783337831570549800,5.8775498046875,-0.9875028133392334,2.422057867050171,-2.4119036197662354
1783337831580522500,5.8875224609375,-0.818600594997406,2.2360148429870605,-2.2422876358032227
1783337831590495500,5.89749560546875,-0.6583232879638672,1.884158730506897,-1.922843337059021
1783337831600468700,5.90746875,-0.4981868863105774,1.5336776971817017,-1.5224915742874146
1783337831610441700,5.917441650390625,-0.386732280254364,1.0758057832717896,-1.0541449785232544
1783337831620414700,5.927414794921875,-0.3913797438144684,0.6164309978485107,-0.6116026639938354
1783337831630386700,5.93738671875,-0.508679986000061,0.18016311526298523,-0.3364422023296356
1783337831640359700,5.947359619140625,-0.6689716577529907,-0.04423297569155693,-0.3571679890155792
1783337831650332700,5.957332763671875,-0.8306641578674316,-0.021823007613420486,-0.5162146091461182
1783337831660305400,5.967305419921875,-0.993657112121582,-0.036979321390390396,-0.6059918999671936
1783337831670278700,5.977278564453125,-1.1076390743255615,-0.14711621403694153,-0.600131094455719
1783337831680251600,5.987251708984375,-1.1351675987243652,-0.34307053685188293,-0.5657646059989929
1783337831690223600,5.9972236328125,-1.1049830913543701,-0.5314428210258484,-0.4897449314594269
1783337831700196600,6.007196533203125,-0.9978361129760742,-0.8165382146835327,-0.3655034005641937
1783337831710169600,6.017169677734375,-0.8513447046279907,-1.216260313987732,-0.23416589200496674
1783337831720142600,6.027142578125,-0.669686496257782,-1.6339550018310547,-0.1281353384256363
1783337831730115600,6.037115478515625,-0.5630982518196106,-1.9503846168518066,-0.052137237042188644
1783337831740088600,6.047088623046875,-0.5126079320907593,-2.2005696296691895,-0.009048622101545334
1783337831750061600,6.0570615234375,-0.46251463890075684,-2.2917234897613525,0.010003099218010902
1783337831760033500,6.067033447265625,-0.42234352231025696,-2.215508460998535,0.023936225101351738
1783337831770006800,6.0770068359375,-0.37380263209342957,-2.052595615386963,0.04488518461585045
1783337831779979800,6.086979736328125,-0.3098510801792145,-1.8844141960144043,0.05272872373461723
1783337831789952500,6.096952392578125,-0.1893981546163559,-1.7230290174484253,0.046732351183891296
1783337831799925500,6.106925537109375,-0.0579511821269989,-1.621346354484558,0.06574466079473495
1783337831809898500,6.1168984375,0.03278378024697304,-1.5957767963409424,0.10928467661142349
1783337831819871700,6.126871826171875,0.10087841004133224,-1.5364614725112915,0.1702532172203064
1783337831829843500,6.136843505859375,0.15530915558338165,-1.3932931423187256,0.24140702188014984
1783337831839816400,6.14681640625,0.17967627942562103,-1.1896721124649048,0.3094763457775116
1783337831849789700,6.156789794921875,0.16603530943393707,-0.9801580309867859,0.37851136922836304
1783337831859762700,6.1667626953125,0.2145346701145172,-0.761528491973877,0.45596885681152344
1783337831869735400,6.1767353515625,0.310596227645874,-0.4961945712566376,0.5404856204986572
1783337831879708400,6.18670849609375,0.4112392067909241,-0.23702372610569,0.6195149421691895
1783337831889680600,6.1966806640625,0.4784155786037445,-0.09229930490255356,0.6552433371543884
1783337831899653600,6.206653564453125,0.5424744486808777,-0.08022373169660568,0.6308469176292419
1783337831909626400,6.21662646484375,0.5974253416061401,-0.1054697036743164,0.5448947548866272
1783337831919599600,6.226599609375,0.5997343063354492,-0.12984375655651093,0.4359631836414337
1783337831929572600,6.236572509765625,0.521155059337616,-0.15943492949008942,0.3457866907119751
1783337831939545600,6.246545654296875,0.37683436274528503,-0.12280581146478653,0.271675705909729
1783337831949518600,6.2565185546875,0.19197262823581696,0.03128362074494362,0.18452855944633484
1783337831959490600,6.266490478515625,-0.006813697516918182,0.3105349540710449,0.06138772517442703
1783337831969463600,6.276463623046875,-0.24422572553157806,0.6905850768089294,-0.07750570774078369
1783337831979436500,6.2864365234375,-0.48783597350120544,1.006241798400879,-0.15261191129684448
1783337831989409800,6.296409912109375,-0.6498432755470276,1.0178964138031006,-0.09504129737615585
1783337831999382500,6.306382568359375,-0.7240245342254639,0.6909049153327942,0.07713180035352707
1783337832009355500,6.31635546875,-0.6953263282775879,0.1612733155488968,0.3098076581954956
1783337832019328500,6.32632861328125,-0.504054605960846,-0.3798282742500305,0.5368837118148804
1783337832029300700,6.33630078125,-0.1719464659690857,-0.7508079409599304,0.7150645852088928
1783337832039273500,6.3462734375,0.18159136176109314,-0.8712273240089417,0.7940726280212402
1783337832049246500,6.35624658203125,0.40915635228157043,-0.8671971559524536,0.8332013487815857
1783337832059219700,6.3662197265625,0.544610321521759,-0.8519800901412964,0.8689010143280029
1783337832069192700,6.376192626953125,0.6497161984443665,-0.8174964189529419,0.8944311738014221
1783337832079165700,6.386165771484375,0.7931995987892151,-0.7413148283958435,0.9059703946113586
1783337832089137700,6.3961376953125,0.9787612557411194,-0.6291081309318542,0.902068555355072
1783337832099110700,6.406110595703125,1.1398968696594238,-0.5740448832511902,0.8384957313537598
1783337832109083600,6.416083740234375,1.1819173097610474,-0.6110638976097107,0.6548702120780945
1783337832119056600,6.426056640625,1.077034592628479,-0.6380694508552551,0.3921360969543457
1783337832129029600,6.436029541015625,0.8648277521133423,-0.6170408129692078,0.1864849179983139
1783337832139002600,6.446002685546875,0.6040579080581665,-0.4686553478240967,0.12711161375045776
1783337832148975600,6.4559755859375,0.3753800094127655,-0.19161869585514069,0.22032518684864044
1783337832158947600,6.465947509765625,0.2626670300960541,0.1573515385389328,0.39342984557151794
1783337832168920600,6.475920654296875,0.3063199818134308,0.4682449698448181,0.5717732310295105
1783337832178893600,6.4858935546875,0.45268571376800537,0.6400902271270752,0.681500256061554
1783337832188866600,6.495866455078125,0.5567079782485962,0.6246641278266907,0.6635484099388123
1783337832198839600,6.505839599609375,0.525337278842926,0.44006288051605225,0.6004146933555603
1783337832208812800,6.515812744140625,0.4658001959323883,0.1573113203048706,0.517647385597229
1783337832218784500,6.525784423828125,0.545884907245636,-0.16523823142051697,0.3719157576560974
1783337832228757500,6.535757568359375,0.7424304485321045,-0.5118651390075684,0.18939761817455292
1783337832238730800,6.545730712890625,0.9103353023529053,-0.9065698385238647,0.0041486723348498344
1783337832248703500,6.555703369140625,0.9579970836639404,-1.327275276184082,-0.13389575481414795
1783337832258676500,6.565676513671875,0.9155575037002563,-1.7041312456130981,-0.20936040580272675
1783337832268649500,6.5756494140625,0.8248728513717651,-1.9731298685073853,-0.2335142195224762
1783337832278622700,6.585622802734375,0.7060551047325134,-2.129680633544922,-0.1973804533481598
1783337832288594400,6.595594482421875,0.5852237939834595,-2.1545519828796387,-0.1245160922408104
1783337832298567400,6.6055673828125,0.4713022708892822,-2.051248073577881,-0.030064424499869347
1783337832308540700,6.615540771484375,0.3776831030845642,-1.7625495195388794,0.04953213408589363
1783337832318513700,6.625513671875,0.30212336778640747,-1.3328181505203247,0.12605273723602295
1783337832328486700,6.635486572265625,0.2244109958410263,-0.8279719948768616,0.21288271248340607
1783337832338459400,6.64545947265625,0.1324073076248169,-0.29776403307914734,0.30350661277770996
1783337832348431600,6.655431640625,0.0605914406478405,0.25746217370033264,0.4060215353965759
1783337832358404600,6.665404541015625,0.031027957797050476,0.8120582699775696,0.5550382137298584
1783337832368377600,6.675377685546875,0.02166641317307949,1.35896635055542,0.8027313351631165
1783337832378350600,6.6853505859375,0.007836084812879562,1.8505792617797852,1.1358994245529175
1783337832388323600,6.695323486328125,0.031139010563492775,2.2139923572540283,1.4454010725021362
1783337832398296600,6.705296630859375,0.09956467151641846,2.3927321434020996,1.6152236461639404
1783337832408269600,6.71526953125,0.15670998394489288,2.4047653675079346,1.6028368473052979
1783337832418241500,6.725241455078125,0.14794738590717316,2.2448201179504395,1.4321521520614624
1783337832428214500,6.735214599609375,0.0917472317814827,1.9103480577468872,1.1650320291519165
1783337832438187500,6.7451875,0.0306876040995121,1.4180033206939697,0.8592715859413147
1783337832448160800,6.755160888671875,-0.01776142045855522,0.8401897549629211,0.563522458076477
1783337832458133800,6.7651337890625,-0.05055798217654228,0.29374799132347107,0.3168453276157379
1783337832468106500,6.7751064453125,-0.03864433243870735,-0.12980246543884277,0.1396351307630539
1783337832478079500,6.78507958984375,0.0065196845680475235,-0.38497671484947205,0.03394225239753723
1783337832488051700,6.7950517578125,0.04392937570810318,-0.5198290944099426,-0.01600559800863266
1783337832498024700,6.805024658203125,0.07717441022396088,-0.5894230604171753,-0.027705131098628044
1783337832507997400,6.81499755859375,0.11377955973148346,-0.613422691822052,-0.010897388681769371
1783337832517970700,6.824970703125,0.1604464054107666,-0.5933988690376282,0.031443409621715546
1783337832527943700,6.834943603515625,0.2101321965456009,-0.5381492376327515,0.10076496005058289
1783337832537916700,6.844916748046875,0.25821104645729065,-0.4536077082157135,0.19233429431915283
1783337832547888600,6.854888671875,0.3022959530353546,-0.3466029465198517,0.2908880412578583
1783337832557861600,6.864861572265625,0.3433011770248413,-0.2211741954088211,0.3877384066581726
1783337832567834600,6.874834716796875,0.36789119243621826,-0.09604077786207199,0.4798286557197571
1783337832577807600,6.8848076171875,0.3837745487689972,-0.003811249742284417,0.5633538961410522
1783337832587780600,6.894780517578125,0.3950554430484772,0.03996845334768295,0.6338198184967041
1783337832597753600,6.904753662109375,0.4113942086696625,0.06205271929502487,0.6811332702636719
1783337832607726600,6.9147265625,0.4229528605937958,0.08424217253923416,0.7019203305244446
1783337832617698600,6.924698486328125,0.4218175411224365,0.12309316545724869,0.7031450867652893
1783337832627671600,6.934671630859375,0.41538920998573303,0.1804099828004837,0.6917957663536072
1783337832637644500,6.94464453125,0.39534813165664673,0.2349374145269394,0.6698158979415894
1783337832647618000,6.9546181640625,0.37187743186950684,0.24749740958213806,0.6337854862213135
1783337832657591000,6.964591064453125,0.3428955674171448,0.19566404819488525,0.5877466201782227
1783337832667564000,6.97456396484375,0.31197547912597656,0.08041388541460037,0.5279032588005066
1783337832677536000,6.984535888671875,0.3059473931789398,-0.07616560906171799,0.4492878019809723
1783337832687509000,6.994509033203125,0.30568134784698486,-0.2137511670589447,0.38751497864723206
1783337832697482000,7.00448193359375,0.29161587357521057,-0.28812581300735474,0.3612556755542755
1783337832707455000,7.014455078125,0.2582017183303833,-0.27480626106262207,0.34333792328834534
1783337832717428000,7.024427978515625,0.2083931565284729,-0.14396116137504578,0.3321308195590973
1783337832727401000,7.03440087890625,0.14001701772212982,0.08318915963172913,0.30033746361732483
1783337832737373200,7.044373291015625,0.032470591366291046,0.30132707953453064,0.24237695336341858
1783337832747346000,7.054345947265625,-0.09883549809455872,0.41468772292137146,0.1445193588733673
1783337832757319000,7.06431884765625,-0.23398825526237488,0.3871636986732483,0.007511445786803961
1783337832767292000,7.0742919921875,-0.35703083872795105,0.25865766406059265,-0.15157008171081543
1783337832777265200,7.08426513671875,-0.48064279556274414,0.10158681124448776,-0.3166506588459015
1783337832787238100,7.094238037109375,-0.6090551018714905,-0.03346874564886093,-0.4708783030509949
1783337832797211000,7.1042109375,-0.7371049523353577,-0.1271933764219284,-0.5992522239685059
1783337832807183000,7.11418310546875,-0.8795850872993469,-0.1704566925764084,-0.7226596474647522
1783337832817156000,7.124156005859375,-1.0403660535812378,-0.12882909178733826,-0.8577711582183838
1783337832827129000,7.134129150390625,-1.1930668354034424,0.012623650021851063,-1.0187864303588867
1783337832837101800,7.144101806640625,-1.3139818906784058,0.24687103927135468,-1.1956357955932617
1783337832847075000,7.154074951171875,-1.3813412189483643,0.5402973294258118,-1.3459371328353882
1783337832857048000,7.164048095703125,-1.3656975030899048,0.8238773941993713,-1.4228558540344238
1783337832867020000,7.17402001953125,-1.3223111629486084,1.0835446119308472,-1.4970824718475342
1783337832876993000,7.183992919921875,-1.2875126600265503,1.3247332572937012,-1.5942907333374023
1783337832886966000,7.193966064453125,-1.2324656248092651,1.4762340784072876,-1.7048861980438232
1783337832896939000,7.20393896484375,-1.1771193742752075,1.5342204570770264,-1.8241143226623535
1783337832906912000,7.213912109375,-1.1240744590759277,1.5516026020050049,-1.9480794668197632
1783337832916885000,7.223885009765625,-1.0337361097335815,1.6390382051467896,-2.0534250736236572
1783337832926858000,7.23385791015625,-0.9138016700744629,1.8189374208450317,-2.102640390396118
1783337832936830000,7.243829833984375,-0.819268524646759,1.951024055480957,-2.051234006881714
1783337832946803200,7.25380322265625,-0.7357616424560547,1.9699867963790894,-1.890211820602417
1783337832956776000,7.26377587890625,-0.670815110206604,1.9569032192230225,-1.672080636024475
1783337832966749000,7.2737490234375,-0.5849415063858032,1.7939183712005615,-1.426444172859192
1783337832976722000,7.283721923828125,-0.47699639201164246,1.3028285503387451,-1.1225926876068115
1783337832986695200,7.293695068359375,-0.35827770829200745,0.543267548084259,-0.7593955993652344
1783337832996667000,7.3036669921875,-0.3035023510456085,-0.23302552103996277,-0.40135249495506287
1783337833006639900,7.313639892578125,-0.39327457547187805,-0.8337406516075134,-0.17457127571105957
1783337833016613000,7.323613037109375,-0.6517327427864075,-1.0531078577041626,-0.18669265508651733
1783337833026586000,7.333586181640625,-1.0248565673828125,-0.8715248107910156,-0.3540686070919037
1783337833036559000,7.34355908203125,-1.3932545185089111,-0.5491510033607483,-0.466351717710495
1783337833046531800,7.35353173828125,-1.6000345945358276,-0.3631907105445862,-0.43456795811653137
1783337833056504000,7.363504150390625,-1.6003986597061157,-0.4045085906982422,-0.3375633955001831
1783337833066477000,7.37347705078125,-1.459240198135376,-0.6640498638153076,-0.2228354811668396
1783337833076450000,7.383449951171875,-1.2399110794067383,-1.130558729171753,-0.10973262041807175
1783337833086423000,7.393423095703125,-0.966172993183136,-1.7097132205963135,0.0007829693495295942
1783337833096396000,7.40339599609375,-0.747331976890564,-2.2139699459075928,0.11602567136287689
1783337833106369000,7.413369140625,-0.587722659111023,-2.5787696838378906,0.22208845615386963
1783337833116342000,7.423342041015625,-0.47159281373023987,-2.8267269134521484,0.30253908038139343
1783337833126314000,7.43331396484375,-0.3841375410556793,-2.9574668407440186,0.355280339717865
1783337833136287000,7.443286865234375,-0.33204904198646545,-2.9172773361206055,0.3769392967224121
1783337833146260000,7.453260009765625,-0.3098316192626953,-2.7400479316711426,0.37750574946403503
1783337833156233000,7.46323291015625,-0.2852919399738312,-2.4735376834869385,0.357300341129303
1783337833166206200,7.473206298828125,-0.2253684103488922,-2.1518373489379883,0.3275424540042877
1783337833176179000,7.483178955078125,-0.18270562589168549,-1.87247896194458,0.32112982869148254
1783337833186151000,7.49315087890625,-0.15422791242599487,-1.6902079582214355,0.3255482614040375
1783337833196124200,7.503124267578125,-0.13982340693473816,-1.6049702167510986,0.32013511657714844
1783337833206097200,7.51309716796875,-0.12625832855701447,-1.524074912071228,0.32208457589149475
1783337833216070000,7.52306982421875,-0.10386993736028671,-1.3568294048309326,0.337268590927124
1783337833226043000,7.53304296875,-0.08660013973712921,-1.040157437324524,0.36157286167144775
1783337833236016000,7.54301611328125,-0.07436131685972214,-0.6457691788673401,0.38721564412117004
1783337833245989000,7.552989013671875,-0.03596439212560654,-0.3719003200531006,0.4361158013343811
1783337833255960800,7.5629609375,0.02743482030928135,-0.14929601550102234,0.48940005898475647
1783337833265934000,7.57293408203125,0.09068889170885086,0.0775696262717247,0.5222392082214355
1783337833275907000,7.582906982421875,0.1401110291481018,0.2760699391365051,0.5188626050949097
1783337833285880000,7.592880126953125,0.14559128880500793,0.37754887342453003,0.46503746509552
1783337833295852800,7.602852783203125,0.10361480712890625,0.32893288135528564,0.3831409811973572
1783337833305826000,7.612825927734375,0.036246687173843384,0.1918269544839859,0.30620360374450684
1783337833315798000,7.622798095703125,-0.034447189420461655,0.037811029702425,0.2553928792476654
1783337833325771000,7.63277099609375,-0.10400895774364471,-0.11276942491531372,0.2350178360939026
1783337833335744000,7.642743896484375,-0.16619589924812317,-0.20455659925937653,0.23309823870658875
1783337833345717000,7.652717041015625,-0.22112545371055603,-0.18170854449272156,0.24526141583919525
1783337833355690000,7.66268994140625,-0.2467045933008194,-0.04465695098042488,0.2518700659275055
1783337833365663000,7.6726630859375,-0.23784638941287994,0.22391805052757263,0.23847968876361847
1783337833375635000,7.682635009765625,-0.20113949477672577,0.5753450393676758,0.20306843519210815
1783337833385608000,7.69260791015625,-0.14257845282554626,0.844900906085968,0.18138577044010162
1783337833395581000,7.702580810546875,-0.08928274363279343,0.9369732737541199,0.20995137095451355
1783337833405554200,7.71255419921875,-0.03509753197431564,0.7791128158569336,0.3261469602584839
1783337833415527200,7.722527099609375,0.02599511481821537,0.4286664128303528,0.5048384070396423
1783337833425500000,7.7325,0.16952139139175415,-0.029894782230257988,0.6900697946548462
1783337833435472100,7.74247216796875,0.3822144865989685,-0.3786466419696808,0.8011142611503601
1783337833445445000,7.752445068359375,0.5683284401893616,-0.5638684034347534,0.8549343347549438
1783337833455418000,7.762418212890625,0.723416268825531,-0.6929835677146912,0.8620998859405518
1783337833465390800,7.772390869140625,0.8819550275802612,-0.8010434508323669,0.8331379890441895
1783337833475364000,7.782364013671875,1.04806387424469,-0.8793310523033142,0.7913122177124023
1783337833485337000,7.792337158203125,1.1861664056777954,-0.9450136423110962,0.7378516793251038
1783337833495309000,7.80230908203125,1.2939908504486084,-0.9915635585784912,0.6642179489135742
1783337833505282000,7.812281982421875,1.3532805442810059,-1.0057199001312256,0.5444153547286987
1783337833515255000,7.822255126953125,1.321285605430603,-0.9999554753303528,0.387481689453125
1783337833525228000,7.83222802734375,1.1544816493988037,-0.965282678604126,0.24933366477489471
1783337833535201000,7.842200927734375,0.8632857799530029,-0.8423956632614136,0.1707776039838791
1783337833545174000,7.852174072265625,0.5376725196838379,-0.5998032689094543,0.19481129944324493
1783337833555147000,7.86214697265625,0.30807021260261536,-0.16527950763702393,0.27949395775794983
1783337833565119000,7.872118896484375,0.21382440626621246,0.34664076566696167,0.3813164532184601
1783337833575092000,7.882092041015625,0.19999434053897858,0.8538571000099182,0.46909478306770325
1783337833585065200,7.892065185546875,0.242346853017807,1.272210955619812,0.5387952923774719
1783337833595038000,7.902037841796875,0.27719804644584656,1.4509309530258179,0.6017026305198669
1783337833605011000,7.912010986328125,0.3317566215991974,1.3010023832321167,0.6074374914169312
1783337833614984000,7.92198388671875,0.47153156995773315,0.8799387812614441,0.5533891320228577
1783337833624956200,7.9319560546875,0.6543125510215759,0.37307795882225037,0.42945683002471924
1783337833634929000,7.941928955078125,0.8037846088409424,-0.11492232233285904,0.26813849806785583
1783337833644902000,7.95190185546875,0.8804711699485779,-0.5606289505958557,0.1113763228058815
1783337833654875600,7.961875732421875,0.905052900314331,-0.9328336715698242,-0.019391806796193123
1783337833664849000,7.971848876953125,0.8999260663986206,-1.1015782356262207,-0.16996267437934875
1783337833674821600,7.981821533203125,0.8321888446807861,-1.1529849767684937,-0.3075951039791107
1783337833684793600,7.991793701171875,0.6811795830726624,-0.9984968304634094,-0.44006234407424927
1783337833694766800,8.001766845703125,0.4701603055000305,-0.742013692855835,-0.4906890392303467
1783337833704739800,8.01173974609375,0.2981936037540436,-0.4965597093105316,-0.43675708770751953
1783337833714712600,8.021712646484374,0.20588313043117523,-0.2694130837917328,-0.26772385835647583
1783337833724685600,8.031685546875,0.15776433050632477,-0.07793927192687988,0.005408347584307194
1783337833734658800,8.041658935546875,0.09630922228097916,0.16934294998645782,0.306193470954895
1783337833744630800,8.051630859375,0.04554857686161995,0.5254664421081543,0.6149510741233826
1783337833754603500,8.061603515625,0.010201770812273026,0.9652904272079468,0.9203922152519226
1783337833764576800,8.07157666015625,-0.018853316083550453,1.4027899503707886,1.2035101652145386
1783337833774549800,8.0815498046875,0.042984217405319214,1.8760366439819336,1.4087597131729126
1783337833784522800,8.091522705078125,0.1636488437652588,2.3551573753356934,1.4774680137634277
1783337833794495700,8.101495849609375,0.2208024114370346,2.7364003658294678,1.4351037740707397
1783337833804467700,8.1114677734375,0.17831994593143463,2.9344470500946045,1.3017385005950928
1783337833814440700,8.121440673828126,0.06959132850170135,2.9322924613952637,1.097164273262024
1783337833824413700,8.13141357421875,-0.06700912863016129,2.767662763595581,0.8508567810058594
1783337833834387000,8.141386962890625,-0.18594270944595337,2.464188575744629,0.5856038331985474
1783337833844359700,8.151359619140624,-0.24406273663043976,2.008631944656372,0.34388867020606995
1783337833854332700,8.161332763671876,-0.24903325736522675,1.4332581758499146,0.1466352492570877
1783337833864305700,8.1713056640625,-0.24341212213039398,0.8785696625709534,0.00039974047103896737
1783337833874278000,8.18127783203125,-0.22703181207180023,0.4571246802806854,-0.09880007803440094
1783337833884250600,8.191250732421874,-0.17475822567939758,0.16124588251113892,-0.16467709839344025
1783337833894223600,8.2012236328125,-0.11955036222934723,-0.02550349570810795,-0.19337639212608337
1783337833904196900,8.21119677734375,-0.0689053013920784,-0.15900883078575134,-0.1887052059173584
1783337833914169900,8.221169921875,-0.014276940375566483,-0.24290771782398224,-0.1526167094707489
1783337833924142800,8.231142822265625,0.05108395591378212,-0.24591736495494843,-0.08398651331663132
1783337833934114800,8.24111474609375,0.0991516187787056,-0.16673626005649567,0.021434985101222992
1783337833944087800,8.251087890625,0.13627076148986816,-0.030848193913698196,0.1523040533065796
1783337833954060800,8.261060791015625,0.16897384822368622,0.14544880390167236,0.2926614284515381
1783337833964033500,8.271033447265625,0.21925832331180573,0.3531742990016937,0.42529457807540894
1783337833974006500,8.281006591796874,0.2754656672477722,0.566584587097168,0.5370429158210754
1783337833983979800,8.290979736328126,0.3368789553642273,0.7348628044128418,0.6220606565475464
1783337833993951700,8.30095166015625,0.3909033238887787,0.8128782510757446,0.6767526268959045
1783337834003924700,8.3109248046875,0.4227784276008606,0.8152514100074768,0.7069406509399414
1783337834013897700,8.320897705078124,0.43162891268730164,0.7742695808410645,0.7300810813903809
1783337834023870700,8.33087060546875,0.428954541683197,0.7212745547294617,0.7492233514785767
1783337834033843700,8.34084375,0.42491665482521057,0.6642743945121765,0.7687989473342896
1783337834043816700,8.350816650390625,0.42835932970046997,0.6029455065727234,0.7871063351631165
1783337834053788700,8.36078857421875,0.4476454257965088,0.5381665229797363,0.8010008335113525
1783337834063761700,8.37076171875,0.4594821035861969,0.45909807085990906,0.7979301810264587
1783337834073734700,8.380734619140625,0.4473540782928467,0.36523178219795227,0.7715467810630798
1783337834083708000,8.3907080078125,0.4233800172805786,0.26356345415115356,0.7182092666625977
1783337834093680600,8.4006806640625,0.41257503628730774,0.16958637535572052,0.6604013442993164
1783337834103653600,8.410653564453124,0.3944642245769501,0.10204806923866272,0.6275686025619507
1783337834113625900,8.4206259765625,0.3237018883228302,0.06897427141666412,0.6070100665092468
1783337834123598800,8.430598876953125,0.20831884443759918,0.06041247770190239,0.5566046833992004
1783337834133571600,8.440571533203125,0.080787792801857,0.09464927762746811,0.43789559602737427
1783337834143544600,8.450544677734374,-0.036800891160964966,0.16953150928020477,0.24848145246505737
1783337834153517800,8.460517822265626,-0.13289520144462585,0.27854666113853455,0.02376365289092064
1783337834163490800,8.47049072265625,-0.20436325669288635,0.4329114854335785,-0.1915430724620819
1783337834173462500,8.480462646484375,-0.251129150390625,0.600351870059967,-0.35993021726608276
1783337834183435800,8.490435791015624,-0.29308539628982544,0.71810382604599,-0.4778267443180084
1783337834193408800,8.50040869140625,-0.33502697944641113,0.7638995051383972,-0.5659169554710388
1783337834203381800,8.5103818359375,-0.38778313994407654,0.7395702004432678,-0.6530278921127319
1783337834213354800,8.520354736328125,-0.4394756257534027,0.6562923789024353,-0.7352902293205261
1783337834223327700,8.53032763671875,-0.4908069968223572,0.5249138474464417,-0.8098169565200806
1783337834233299700,8.5402998046875,-0.5600292086601257,0.3663548231124878,-0.876436710357666
1783337834243272700,8.550272705078125,-0.6423832178115845,0.2128201276063919,-0.9605585336685181
1783337834253246000,8.560245849609375,-0.7402932643890381,0.12130725383758545,-1.082951307296753
1783337834263218700,8.57021875,-0.8432319164276123,0.12747140228748322,-1.2471426725387573
1783337834273191700,8.580191650390624,-0.9201032519340515,0.2505626976490021,-1.4113528728485107
1783337834283164700,8.59016455078125,-0.9682217836380005,0.4393653869628906,-1.5257982015609741
1783337834293137000,8.600136962890625,-0.9973658323287964,0.6852523684501648,-1.572644829750061
1783337834303109600,8.610109619140625,-1.0302022695541382,0.982910692691803,-1.6004530191421509
1783337834313082600,8.62008251953125,-1.038285493850708,1.3151698112487793,-1.6392028331756592
1783337834323055900,8.630055908203126,-1.038659930229187,1.7432866096496582,-1.7188787460327148
1783337834333028900,8.64002880859375,-1.075390338897705,2.2176363468170166,-1.8164803981781006
1783337834343001600,8.650001708984375,-1.132944941520691,2.6220672130584717,-1.9125804901123047
1783337834352973800,8.659973876953124,-1.1359002590179443,2.8788678646087646,-1.966722846031189
1783337834362946800,8.66994677734375,-1.09073007106781,2.9997687339782715,-1.9729658365249634
1783337834372919800,8.679919921875,-1.0261896848678589,2.970728635787964,-1.9433890581130981
1783337834382892500,8.689892578125,-0.943307638168335,2.7564358711242676,-1.8520005941390991
1783337834392865500,8.699865478515624,-0.8654844760894775,2.3336286544799805,-1.6544948816299438
1783337834402838800,8.7098388671875,-0.783929705619812,1.8133407831192017,-1.3853691816329956
1783337834412810800,8.719810791015625,-0.6704263091087341,1.1640863418579102,-1.0741641521453857
1783337834422783500,8.729783447265625,-0.5688011646270752,0.414045125246048,-0.7337871789932251
1783337834432756700,8.7397568359375,-0.5796697735786438,-0.11318487673997879,-0.45960888266563416
1783337834442729700,8.749729736328124,-0.7123660445213318,-0.3915075659751892,-0.3553676903247833
1783337834452702700,8.75970263671875,-0.8745986223220825,-0.5020279884338379,-0.3985031843185425
1783337834462675700,8.76967578125,-1.0441445112228394,-0.5335741639137268,-0.44317877292633057
1783337834472647700,8.779647705078125,-1.2203110456466675,-0.50486159324646,-0.4394817650318146
1783337834482620700,8.78962060546875,-1.323845624923706,-0.5190895199775696,-0.45208650827407837
1783337834492593700,8.79959375,-1.2736223936080933,-0.6779316067695618,-0.4613092839717865
1783337834502567000,8.80956689453125,-1.0964093208312988,-1.0491677522659302,-0.44134649634361267
1783337834512539600,8.81953955078125,-0.882865846157074,-1.601635217666626,-0.3820964992046356
1783337834522512600,8.8295126953125,-0.7093529105186462,-2.1247715950012207,-0.30432793498039246
1783337834532484900,8.83948486328125,-0.6155646443367004,-2.4319794178009033,-0.213018000125885
1783337834542457900,8.849457763671875,-0.5570651292800903,-2.519665241241455,-0.13596688210964203
1783337834552430600,8.8594306640625,-0.5132971405982971,-2.417255163192749,-0.08613621443510056
1783337834562403600,8.869403564453124,-0.46880877017974854,-2.1921403408050537,-0.07251574844121933
1783337834572376800,8.879376953125,-0.4093206524848938,-1.9564892053604126,-0.06345061212778091
1783337834582349800,8.889349853515625,-0.32070398330688477,-1.7930424213409424,-0.06649193912744522
1783337834592321500,8.899321533203125,-0.24783989787101746,-1.688527226448059,-0.07311202585697174
1783337834602294800,8.909294677734374,-0.16598844528198242,-1.5964246988296509,-0.044985316693782806
1783337834612267800,8.919267822265626,-0.07119854539632797,-1.540887475013733,0.01739789918065071
1783337834622240800,8.92924072265625,0.03140772506594658,-1.4817159175872803,0.10534986108541489
1783337834632213800,8.9392138671875,0.12725035846233368,-1.3720896244049072,0.20468656718730927
1783337834642185700,8.949185791015625,0.1989075094461441,-1.2111464738845825,0.31209611892700195
1783337834652157200,8.9591572265625,0.23843413591384888,-0.9787524342536926,0.41518786549568176
1783337834662130200,8.969130126953125,0.2922805845737457,-0.742327094078064,0.48735207319259644
1783337834672103200,8.979103271484375,0.36770665645599365,-0.5345683097839355,0.5367822051048279
1783337834682076200,8.989076171875,0.4381949305534363,-0.3548864424228668,0.5502508878707886
1783337834692049200,8.999049072265626,0.46757972240448,-0.22974078357219696,0.5156164765357971
1783337834702021000,9.009021240234375,0.4610840082168579,-0.1351064294576645,0.42561495304107666
1783337834711994000,9.018994140625,0.42044150829315186,-0.0344112366437912,0.3202296793460846
1783337834721967000,9.028967041015624,0.3354022204875946,0.0243745818734169,0.2714296281337738
1783337834731940000,9.038940185546876,0.20968079566955566,0.07884953916072845,0.3034621477127075
1783337834741913000,9.0489130859375,0.07084620743989944,0.18802262842655182,0.3644634485244751
1783337834751886000,9.058885986328125,-0.07810412347316742,0.41520145535469055,0.3697836399078369
1783337834761858300,9.0688583984375,-0.23065558075904846,0.7268709540367126,0.30793091654777527
1783337834771831000,9.0788310546875,-0.35158759355545044,1.0181137323379517,0.22019921243190765
1783337834781804000,9.088803955078125,-0.406422883272171,1.1935420036315918,0.16225548088550568
1783337834791777000,9.098777099609375,-0.3516845405101776,1.1467111110687256,0.17014217376708984
1783337834801750300,9.108750244140625,-0.20442824065685272,0.8862590193748474,0.2601783275604248
1783337834811723300,9.11872314453125,0.02503344789147377,0.48294296860694885,0.41084346175193787
1783337834821695000,9.128695068359375,0.31023988127708435,0.07639463990926743,0.5568049550056458
1783337834831668200,9.138668212890625,0.559333086013794,-0.22869709134101868,0.6515964269638062
1783337834841641200,9.14864111328125,0.7450770735740662,-0.4375978410243988,0.6892963647842407
1783337834851614200,9.1586142578125,0.9157188534736633,-0.5609213709831238,0.6615862250328064
1783337834861587000,9.1685869140625,1.066596269607544,-0.6429983973503113,0.5852725505828857
1783337834871560200,9.178560302734375,1.1583997011184692,-0.7074133157730103,0.46828678250312805
1783337834881532200,9.1885322265625,1.1595935821533203,-0.7861126661300659,0.3053215742111206
1783337834891505200,9.198505126953124,1.0575969219207764,-0.8658170700073242,0.14690369367599487
1783337834901478100,9.20847802734375,0.8357031345367432,-0.8910399079322815,0.07070133090019226
1783337834911451100,9.218451171875,0.5257380604743958,-0.8090060353279114,0.10992969572544098
1783337834921424100,9.228424072265625,0.24126295745372772,-0.5467951893806458,0.20854096114635468
1783337834931397000,9.238397216796875,0.08750348538160324,-0.15833798050880432,0.316506028175354
1783337834941369000,9.248369140625,0.085019551217556,0.3391879200935364,0.41139206290245056
1783337834951342000,9.258342041015625,0.20184311270713806,0.8416968584060669,0.4681701362133026
1783337834961315000,9.268315185546875,0.35453492403030396,1.2210348844528198,0.47787654399871826
1783337834971288300,9.278288330078125,0.5218464136123657,1.3401340246200562,0.45161113142967224
1783337834981261300,9.28826123046875,0.681873619556427,1.1344046592712402,0.4143327474594116
1783337834991233000,9.29823291015625,0.7798103094100952,0.5504530072212219,0.41023892164230347
1783337835001206300,9.308206298828125,0.8165635466575623,-0.31866931915283203,0.43170294165611267
1783337835011179300,9.31817919921875,0.8202149868011475,-1.2419816255569458,0.44723981618881226
1783337835021152300,9.32815234375,0.8490506410598755,-1.900587558746338,0.3959697186946869
1783337835031125000,9.338125,0.8650170564651489,-2.2961325645446777,0.30571678280830383
1783337835041098200,9.34809814453125,0.7792292237281799,-2.4345011711120605,0.27581825852394104
1783337835051071200,9.3580712890625,0.6276212930679321,-2.305636167526245,0.32612884044647217
1783337835061043000,9.36804296875,0.5142622590065002,-1.9288657903671265,0.4022076427936554
1783337835071016200,9.37801611328125,0.4152347445487976,-1.3710813522338867,0.5115458369255066
1783337835080989200,9.3879892578125,0.2927658259868622,-0.7624635696411133,0.6262015700340271
1783337835090962200,9.397962158203125,0.1458088606595993,-0.17877507209777832,0.7217137217521667
1783337835100935200,9.40793505859375,0.030422354117035866,0.39843979477882385,0.795136034488678
1783337835110908000,9.417907958984374,-0.01386761199682951,0.9697583913803101,0.8582441210746765
1783337835120880000,9.427880126953125,0.0034533210564404726,1.5540202856063843,0.8976410627365112
1783337835130853000,9.43785302734375,0.04393123835325241,2.103379249572754,0.9039029479026794
1783337835140826000,9.447826171875,0.0691729485988617,2.5084221363067627,0.8585621118545532
1783337835150799000,9.457799072265624,0.06305699795484543,2.713867664337158,0.762943685054779
1783337835160772000,9.467772216796876,0.020663199946284294,2.671541690826416,0.6366240978240967
1783337835170744000,9.477744140625,-0.02419561706483364,2.341925621032715,0.5097287893295288
1783337835180717300,9.48771728515625,-0.06781259924173355,1.782293677330017,0.39965686202049255
1783337835190690000,9.49768994140625,-0.0917123407125473,1.0881133079528809,0.31008487939834595
1783337835200663000,9.5076630859375,-0.08053958415985107,0.3903195559978485,0.2313016653060913
1783337835210636000,9.517635986328125,-0.05188583582639694,-0.19288823008537292,0.17271558940410614
1783337835220609300,9.527609375,-0.026631344109773636,-0.585037887096405,0.13547579944133759
1783337835230581000,9.5375810546875,-0.005057076457887888,-0.7919756174087524,0.12425190955400467
1783337835240554000,9.547553955078126,0.00875301193445921,-0.8441845178604126,0.12966132164001465
1783337835250527200,9.55752734375,0.0165408942848444,-0.7725033760070801,0.1504904329776764
1783337835260500200,9.567500244140625,0.02648274041712284,-0.59139484167099,0.1851637363433838
1783337835270473200,9.57747314453125,0.0417085662484169,-0.35438284277915955,0.2260187566280365
1783337835280446000,9.587446044921874,0.056762080639600754,-0.10998642444610596,0.27274951338768005
1783337835290418200,9.597418212890625,0.08492793887853622,0.10794138163328171,0.32231786847114563
1783337835300391200,9.60739111328125,0.11952772736549377,0.2874480187892914,0.3782849907875061
1783337835310364200,9.6173642578125,0.1565352827310562,0.4193461239337921,0.4423971176147461
1783337835320337200,9.627337158203124,0.19477933645248413,0.5060845017433167,0.5129740834236145
1783337835330310100,9.63731005859375,0.23738858103752136,0.5437418818473816,0.5818011164665222
1783337835340282000,9.6472822265625,0.27858954668045044,0.5280116200447083,0.6407951712608337
1783337835350255400,9.65725537109375,0.310152530670166,0.4579971134662628,0.6852366924285889
1783337835360228000,9.66722802734375,0.336606502532959,0.34689855575561523,0.7052463293075562
1783337835370201000,9.677201171875,0.3574329614639282,0.22170709073543549,0.6934245824813843
1783337835380173300,9.68717333984375,0.37252935767173767,0.12316454201936722,0.6640608310699463
1783337835390146300,9.697146240234375,0.3777390420436859,0.0755847692489624,0.6277126669883728
1783337835400119000,9.707119140625,0.3818565607070923,0.08296705782413483,0.6011031270027161
1783337835410092000,9.717092041015626,0.38293513655662537,0.14903421700000763,0.5914092659950256
1783337835420065300,9.727065185546875,0.380053848028183,0.2377643585205078,0.5890877842903137
1783337835430037000,9.737037109375,0.39093127846717834,0.3258982002735138,0.5778337717056274
1783337835440010000,9.747010009765624,0.41053345799446106,0.400409996509552,0.5643115639686584
1783337835449983200,9.756983154296876,0.40415945649147034,0.44938018918037415,0.5579825639724731
1783337835459956200,9.766956298828125,0.3800237774848938,0.4549664556980133,0.5366847515106201
1783337835469929200,9.77692919921875,0.35055217146873474,0.42156320810317993,0.4858308732509613
1783337835479902000,9.78690185546875,0.3049825429916382,0.35501134395599365,0.4105076491832733
1783337835489874200,9.796874267578126,0.23900911211967468,0.27291277050971985,0.3147166669368744
1783337835499847200,9.80684716796875,0.15960244834423065,0.20304977893829346,0.1898365169763565
1783337835509820200,9.816820068359375,0.0787438154220581,0.16017049551010132,0.03104659914970398
1783337835519793200,9.826793212890625,-0.011366104707121849,0.14932717382907867,-0.1523469239473343
1783337835529766100,9.83676611328125,-0.12215227633714676,0.18442682921886444,-0.3400539755821228
1783337835539738000,9.846738037109375,-0.24433943629264832,0.25939375162124634,-0.5162844061851501
1783337835549711000,9.856711181640625,-0.3659939765930176,0.33646270632743835,-0.6786038279533386
1783337835559684000,9.86668408203125,-0.492421954870224,0.3775249123573303,-0.8251093626022339
1783337835569657000,9.876656982421874,-0.6175913214683533,0.39231663942337036,-0.9651221036911011
1783337835579630000,9.886630126953126,-0.7351794838905334,0.3853199779987335,-1.0917274951934814
1783337835589603000,9.89660302734375,-0.8657481074333191,0.3472737967967987,-1.19973623752594
1783337835599575000,9.906574951171875,-1.0106773376464844,0.31577181816101074,-1.3135567903518677
1783337835609548000,9.916548095703124,-1.1422628164291382,0.32073619961738586,-1.4202156066894531
1783337835619521000,9.92652099609375,-1.2363685369491577,0.3619944155216217,-1.508928894996643
1783337835629494300,9.936494384765625,-1.2935692071914673,0.4872404932975769,-1.5719521045684814
1783337835639467300,9.94646728515625,-1.3125234842300415,0.6752799153327942,-1.6102933883666992
1783337835649439000,9.95643896484375,-1.2752605676651,0.9171417951583862,-1.6568350791931152
1783337835659412500,9.96641259765625,-1.185619831085205,1.2059690952301025,-1.7018581628799438
1783337835669385500,9.976385498046875,-1.0908539295196533,1.5256315469741821,-1.769771695137024
1783337835679358500,9.9863583984375,-1.0150030851364136,1.7890892028808594,-1.886094093322754
1783337835689331500,9.99633154296875,-0.9266186356544495,1.9450663328170776,-2.0113937854766846
1783337835699304700,10.0063046875,-0.8156149387359619,2.0208921432495117,-2.076775312423706
1783337835709276400,10.0162763671875,-0.7004255056381226,2.0339341163635254,-2.055847644805908
1783337835719249400,10.02624951171875,-0.5907106995582581,2.000074863433838,-1.9496946334838867
1783337835729222700,10.03622265625,-0.5169797539710999,1.8191068172454834,-1.7320739030838013
1783337835739195600,10.046195556640624,-0.5017867088317871,1.3657605648040771,-1.3608481884002686
1783337835749168400,10.05616845703125,-0.4385019838809967,0.6215626001358032,-0.8773648142814636
1783337835759140600,10.066140625,-0.3659153878688812,-0.13311198353767395,-0.4042627811431885
1783337835769113600,10.076113525390625,-0.3955947458744049,-0.6854843497276306,-0.05856530740857124
1783337835779086600,10.086086669921874,-0.5984748601913452,-0.8321821689605713,-0.036429647356271744
1783337835789059300,10.096059326171876,-0.998142659664154,-0.5849409699440002,-0.24629846215248108
1783337835799032600,10.106032470703125,-1.431883692741394,-0.2582765519618988,-0.36348581314086914
1783337835809005600,10.116005615234375,-1.6930590867996216,-0.14221839606761932,-0.3642144501209259
1783337835818977300,10.125977294921874,-1.7443969249725342,-0.31553930044174194,-0.33039283752441406
1783337835828950500,10.135950439453126,-1.5874814987182617,-0.7858272194862366,-0.2829235792160034
1783337835838923500,10.145923583984375,-1.272208333015442,-1.4199063777923584,-0.22818389534950256
1783337835848896500,10.155896484375,-0.9635146260261536,-2.078242301940918,-0.1353740692138672
1783337835858869500,10.165869384765625,-0.7545672655105591,-2.671666145324707,-0.01218689139932394
1783337835868841500,10.175841552734376,-0.6208075881004333,-3.112055540084839,0.06854923069477081
1783337835878814500,10.185814453125,-0.5275841951370239,-3.3416643142700195,0.08760814368724823
1783337835888787500,10.195787353515625,-0.4678252637386322,-3.332913875579834,0.05829819291830063
1783337835898760400,10.205760498046875,-0.4426802098751068,-3.129911422729492,0.0070371367037296295
1783337835908733400,10.2157333984375,-0.41266319155693054,-2.8160958290100098,-0.028202610090374947
1783337835918705400,10.225705322265625,-0.3517819941043854,-2.539574384689331,-0.0295560285449028
1783337835928678400,10.235678466796875,-0.2873750627040863,-2.3298232555389404,0.01997663825750351
1783337835938651600,10.245651611328125,-0.23394325375556946,-2.1475791931152344,0.09759633243083954
1783337835948624400,10.255624267578124,-0.17771805822849274,-1.9705077409744263,0.18471738696098328
1783337835958597400,10.265597412109376,-0.11624378710985184,-1.8100610971450806,0.2609389126300812
1783337835968570400,10.2755703125,-0.06090090051293373,-1.6258126497268677,0.3245154917240143
1783337835978542600,10.28554248046875,-0.02677568793296814,-1.3835009336471558,0.3811662495136261
1783337835988515300,10.295515380859374,-0.014484400860965252,-1.115019679069519,0.43593841791152954
1783337835998488300,10.30548828125,0.019151324406266212,-0.8828001022338867,0.47235769033432007
1783337836008461600,10.315461669921875,0.08148767054080963,-0.7075023055076599,0.49547818303108215
1783337836018434600,10.3254345703125,0.1744077503681183,-0.527953028678894,0.5148311257362366
1783337836028406300,10.33540625,0.25911945104599,-0.30607736110687256,0.5375878214836121
1783337836038379500,10.345379638671876,0.2953227162361145,-0.10534346848726273,0.5383263230323792
1783337836048352500,10.3553525390625,0.3034568130970001,0.03286367282271385,0.5028793811798096
1783337836058325500,10.365325439453125,0.29283425211906433,0.1626826524734497,0.4604605436325073
1783337836068298500,10.375298583984375,0.2622329592704773,0.28891462087631226,0.4450954496860504
1783337836078271500,10.385271484375,0.19510211050510406,0.3890705108642578,0.44774341583251953
1783337836088243500,10.395243408203125,0.10222330689430237,0.4810294806957245,0.4409622251987457
1783337836098216400,10.405216552734375,-0.019346000626683235,0.6757044196128845,0.3996829390525818
1783337836108189700,10.415189697265625,-0.1660664677619934,1.0399463176727295,0.31350597739219666
1783337836118162400,10.425162353515624,-0.34914201498031616,1.5044490098953247,0.19333377480506897
1783337836128135400,10.435135498046876,-0.5220804810523987,1.863762378692627,0.07703299820423126
1783337836138107600,10.445107666015625,-0.6345090270042419,1.8855060338974,0.047580569982528687
1783337836148080600,10.45508056640625,-0.6723674535751343,1.5692237615585327,0.16158463060855865
1783337836158053400,10.465053466796874,-0.6038153171539307,1.0613607168197632,0.3553889989852905
1783337836168026400,10.4750263671875,-0.386807382106781,0.49737808108329773,0.5720919966697693
1783337836177999600,10.48499951171875,-0.056048087775707245,-0.007790012285113335,0.7584871649742126
1783337836187971300,10.494971435546875,0.30737432837486267,-0.41987478733062744,0.847218930721283
1783337836197944300,10.5049443359375,0.5563468933105469,-0.7863883376121521,0.8297699093818665
1783337836207917600,10.51491748046875,0.6778522729873657,-1.117845058441162,0.7792691588401794
1783337836217890600,10.524890625,0.7657637596130371,-1.4059511423110962,0.7243329286575317
1783337836227863600,10.534863525390625,0.8754934072494507,-1.6224086284637451,0.6846150755882263
1783337836237836300,10.544836181640624,0.9958752393722534,-1.7178001403808594,0.6584417819976807
1783337836247808500,10.55480859375,1.047094464302063,-1.6251375675201416,0.5871782898902893
1783337836257781500,10.564781494140625,0.9580705761909485,-1.4057666063308716,0.4097331762313843
1783337836267754500,10.57475439453125,0.7667845487594604,-1.1653087139129639,0.19846569001674652
1783337836277727500,10.5847275390625,0.5460761189460754,-0.9269957542419434,0.07254716753959656
1783337836287700500,10.594700439453124,0.29893210530281067,-0.7005133628845215,0.06865203380584717
1783337836297672400,10.60467236328125,0.13535596430301666,-0.43859678506851196,0.1656334400177002
1783337836307645400,10.6146455078125,0.15579785406589508,-0.1027439534664154,0.3201865255832672
1783337836317618400,10.624618408203125,0.3606298267841339,0.23886291682720184,0.473788857460022
1783337836327591400,10.63459130859375,0.6321484446525574,0.49800553917884827,0.5817225575447083
1783337836337564400,10.644564453125,0.8530387282371521,0.5787030458450317,0.6303731799125671
1783337836347536600,10.65453662109375,0.9575589895248413,0.3866260051727295,0.6370624899864197
1783337836357509400,10.66450927734375,0.9279912710189819,-0.09870926290750504,0.5901767611503601
1783337836367482400,10.674482421875,0.7892687916755676,-0.7871401309967041,0.4250223934650421
1783337836377455400,10.684455322265626,0.720863401889801,-1.6029188632965088,0.1439363956451416
1783337836387428600,10.6944287109375,0.8092576861381531,-2.366771936416626,-0.10846948623657227
1783337836397401600,10.704401611328125,0.9172083735466003,-2.867999792098999,-0.2195241004228592
1783337836407373300,10.714373291015624,0.9378103613853455,-3.022658586502075,-0.21004217863082886
1783337836417346600,10.7243466796875,0.868744432926178,-2.967081069946289,-0.1327042579650879
1783337836427319600,10.734319580078125,0.7279638648033142,-2.7605855464935303,-0.0052381716668605804
1783337836437292500,10.74429248046875,0.5439293384552002,-2.3844118118286133,0.16287067532539368
1783337836447265300,10.754265380859374,0.3508951663970947,-1.8030662536621094,0.3080480992794037
1783337836457237500,10.764237548828126,0.17328523099422455,-1.0414104461669922,0.4175106883049011
1783337836467210500,10.77421044921875,0.03409804776310921,-0.1591891199350357,0.4937218427658081
1783337836477183500,10.78418359375,-0.03572896867990494,0.7270925045013428,0.5945368409156799
1783337836487156500,10.794156494140625,-0.05397375300526619,1.5712202787399292,0.7957988381385803
1783337836497129500,10.80412939453125,-0.053695451468229294,2.4011306762695312,1.1459754705429077
1783337836507101400,10.814101318359375,-0.02918984368443489,3.1244735717773438,1.5913753509521484
1783337836517074700,10.82407470703125,0.0592031367123127,3.630859375,1.982833981513977
1783337836527047400,10.83404736328125,0.21168135106563568,3.7780215740203857,2.154695749282837
1783337836537020400,10.8440205078125,0.36397475004196167,3.6157937049865723,2.066026449203491
1783337836546993400,10.853993408203126,0.387783944606781,3.2045133113861084,1.793673038482666
1783337836556965600,10.863965576171875,0.29372164607048035,2.530285358428955,1.3989856243133545
1783337836566938400,10.8739384765625,0.15345719456672668,1.638312816619873,0.9363000392913818
1783337836576911400,10.883911376953124,0.029272934421896935,0.6817910671234131,0.458992600440979
1783337836586884600,10.893884521484376,-0.039083220064640045,-0.0957891121506691,0.03104526735842228
1783337836596857600,10.903857666015625,-0.045088380575180054,-0.6389951109886169,-0.27151647210121155
1783337836606830300,10.913830322265625,-0.0076869479380548,-0.9886362552642822,-0.42733535170555115
1783337836616802600,10.923802490234374,0.04349394887685776,-1.1949145793914795,-0.46432480216026306
1783337836626775600,10.933775634765626,0.07799600064754486,-1.2743382453918457,-0.4203312397003174
1783337836636748500,10.94374853515625,0.09713587164878845,-1.2391035556793213,-0.32154688239097595
1783337836646721300,10.95372119140625,0.10396181792020798,-1.0698319673538208,-0.182571679353714
1783337836656694300,10.9636943359375,0.10920798033475876,-0.7808100581169128,-0.014517956413328648
1783337836666666000,10.973666015625,0.12963709235191345,-0.3859596848487854,0.16226693987846375
1783337836676639000,10.983638916015625,0.1648789644241333,0.07403827458620071,0.3175393342971802
1783337836686612200,10.9936123046875,0.2005317658185959,0.46417272090911865,0.4412202835083008
1783337836696585200,11.003585205078124,0.23427748680114746,0.6998387575149536,0.5422459840774536
1783337836706558000,11.013557861328126,0.25500619411468506,0.8150029182434082,0.6379940509796143
1783337836716530200,11.0235302734375,0.2526700794696808,0.8365470767021179,0.7494372129440308
1783337836726503200,11.033503173828125,0.2488340586423874,0.76847243309021,0.8644375801086426
1783337836736476200,11.04347607421875,0.2638375163078308,0.6183412671089172,0.9520744681358337
1783337836746449000,11.053448974609376,0.280074805021286,0.4186776876449585,0.9695919752120972
1783337836756422100,11.063422119140625,0.27722442150115967,0.19922734797000885,0.9193975329399109
1783337836766394000,11.07339404296875,0.26798003911972046,-0.017706293612718582,0.8144484758377075
1783337836776367000,11.0833671875,0.25983795523643494,-0.20699605345726013,0.6820917129516602
1783337836786340000,11.093340087890626,0.24760739505290985,-0.3379727303981781,0.5489352941513062
1783337836796313000,11.10331298828125,0.233417809009552,-0.38675597310066223,0.4425566494464874
1783337836806286000,11.1132861328125,0.2121593952178955,-0.33503177762031555,0.3881986141204834
1783337836816258300,11.12325830078125,0.2013770490884781,-0.1866939812898636,0.3572521507740021
1783337836826231000,11.13323095703125,0.21238070726394653,0.044562675058841705,0.33619558811187744
1783337836836204000,11.1432041015625,0.20188279449939728,0.30717751383781433,0.32661858201026917
1783337836846177000,11.153177001953125,0.13883724808692932,0.5483707189559937,0.31333127617836
1783337836856150300,11.163150390625,0.04838377609848976,0.7433639168739319,0.2618558406829834
1783337836866123300,11.173123291015624,-0.043888628482818604,0.8757304549217224,0.15362045168876648
1783337836876095000,11.183094970703126,-0.126439169049263,0.9250050783157349,-0.009975402615964413
1783337836886068200,11.193068115234375,-0.20331449806690216,0.9082753658294678,-0.19832347333431244
1783337836896041200,11.203041259765625,-0.28158026933670044,0.8686206340789795,-0.3804735839366913
1783337836906014200,11.21301416015625,-0.3524097204208374,0.820167601108551,-0.5421513915061951
1783337836915987000,11.222987060546876,-0.4377632141113281,0.7546610236167908,-0.675961971282959
1783337836925959200,11.232959228515625,-0.5331416726112366,0.6873618960380554,-0.7940153479576111
1783337836935932200,11.24293212890625,-0.6348432898521423,0.6288428902626038,-0.9182949662208557
1783337836945905200,11.2529052734375,-0.7483304142951965,0.5902147889137268,-1.0403218269348145
1783337836955878100,11.262878173828126,-0.8866821527481079,0.5836027264595032,-1.165425419807434
1783337836965851100,11.27285107421875,-1.025113582611084,0.593630850315094,-1.2951594591140747
1783337836975823000,11.282822998046875,-1.1405754089355469,0.6188930869102478,-1.4285012483596802
1783337836985796000,11.292796142578124,-1.2250125408172607,0.7244061827659607,-1.5416959524154663
1783337836995769000,11.30276904296875,-1.28409743309021,0.8479353189468384,-1.6389809846878052
1783337837005742000,11.3127421875,-1.3312822580337524,0.9249725937843323,-1.739424705505371
1783337837015715000,11.322715087890625,-1.3264888525009155,1.0689902305603027,-1.8744118213653564
1783337837025687000,11.33268701171875,-1.297381043434143,1.2460688352584839,-2.0090954303741455
1783337837035660000,11.342659912109376,-1.2933841943740845,1.3699969053268433,-2.1176741123199463
1783337837045633000,11.352633056640625,-1.2764999866485596,1.4109283685684204,-2.1928226947784424
1783337837055606000,11.36260595703125,-1.206446886062622,1.4609776735305786,-2.224559783935547
1783337837065579300,11.372579345703125,-1.0735790729522705,1.5259274244308472,-2.2096683979034424
1783337837075551000,11.382551025390624,-0.9211442470550537,1.575865626335144,-2.1372077465057373
1783337837085524000,11.39252392578125,-0.7528889775276184,1.559876799583435,-1.9383796453475952
1783337837095497200,11.402497314453125,-0.58839350938797,1.3359295129776,-1.5400125980377197
1783337837105470200,11.41247021484375,-0.4539717435836792,0.7999962568283081,-0.9594847559928894
1783337837115443000,11.42244287109375,-0.35353145003318787,0.312129408121109,-0.37790149450302124
1783337837125415200,11.432415283203126,-0.3571400046348572,0.05998370796442032,0.08804916590452194
1783337837135388200,11.44238818359375,-0.4491349160671234,0.05770084634423256,0.23670148849487305
1783337837145361200,11.452361083984375,-0.6801897287368774,0.22459742426872253,-0.017558487132191658
1783337837155334000,11.462333984375,-0.963556706905365,0.3209378123283386,-0.28775134682655334
1783337837165307100,11.47230712890625,-1.2375693321228027,0.14620648324489594,-0.37557893991470337
1783337837175279000,11.482279052734375,-1.3732858896255493,-0.23176930844783783,-0.41842761635780334
1783337837185252000,11.492252197265625,-1.3161664009094238,-0.6766402721405029,-0.4423808753490448
1783337837195225000,11.50222509765625,-1.1074504852294922,-1.1711304187774658,-0.3938639461994171
1783337837205198000,11.512197998046876,-0.8295078277587891,-1.6559802293777466,-0.2614947259426117
1783337837215171000,11.522171142578125,-0.6341415047645569,-2.032703399658203,-0.08461208641529083
1783337837225143300,11.532143310546875,-0.5591088533401489,-2.3104608058929443,0.08358970284461975
1783337837235116000,11.542115966796874,-0.5253242254257202,-2.4573748111724854,0.17356006801128387
1783337837245089000,11.552089111328126,-0.47020506858825684,-2.4439680576324463,0.1692175269126892
1783337837255062000,11.56206201171875,-0.44275692105293274,-2.3641881942749023,0.10535358637571335
1783337837265035300,11.57203515625,-0.42830580472946167,-2.232548475265503,0.01913081668317318
1783337837275007000,11.582007080078125,-0.37537601590156555,-2.0763888359069824,-0.058880627155303955
1783337837284980000,11.59197998046875,-0.30609574913978577,-1.958863377571106,-0.08931789547204971
1783337837294953200,11.601953125,-0.24040035903453827,-1.896620750427246,-0.08578281849622726
1783337837304926200,11.61192626953125,-0.1671983152627945,-1.7869832515716553,-0.017315074801445007
1783337837314899200,11.621899169921875,-0.08409330248832703,-1.6051238775253296,0.11303627490997314
1783337837324871200,11.63187109375,0.030549386516213417,-1.4184036254882812,0.26509425044059753
1783337837334844200,11.64184423828125,0.16526885330677032,-1.2299473285675049,0.3944557011127472
1783337837344817200,11.651817138671875,0.2834213376045227,-1.0386929512023926,0.4886237382888794
1783337837354790100,11.6617900390625,0.35142940282821655,-0.8638167977333069,0.5534128546714783
1783337837364763100,11.67176318359375,0.3834017217159271,-0.6518294215202332,0.5986461043357849
1783337837374735000,11.681735107421876,0.43808385729789734,-0.348186731338501,0.6468954086303711
1783337837384708000,11.6917080078125,0.46114471554756165,-0.03397713974118233,0.7096093893051147
1783337837394681000,11.70168115234375,0.4667107164859772,0.21483613550662994,0.7372934818267822
1783337837404654000,11.711654052734374,0.464893102645874,0.43029651045799255,0.7013453245162964
1783337837414627000,11.721626953125,0.4476557970046997,0.5866531133651733,0.6172693371772766
1783337837424599300,11.731599365234375,0.4048934280872345,0.6652507185935974,0.5173690915107727
1783337837434572000,11.741572021484375,0.30426350235939026,0.7289561629295349,0.42368096113204956
1783337837444545000,11.751544921875,0.11255157738924026,0.9110447764396667,0.2977616488933563
1783337837454518000,11.76151806640625,-0.16228877007961273,1.2646584510803223,0.12386761605739594
1783337837464491000,11.771490966796875,-0.4809011220932007,1.6353918313980103,-0.062192000448703766
1783337837474463000,11.781462890625,-0.7969975471496582,1.761074423789978,-0.1731661856174469
1783337837484436000,11.79143603515625,-1.0283783674240112,1.4858721494674683,-0.1785963773727417
1783337837494409000,11.801408935546876,-1.1096960306167603,0.8964695334434509,-0.09842271357774734
1783337837504382200,11.81138232421875,-0.9728825688362122,0.2707555890083313,0.053833670914173126
1783337837514355200,11.821355224609375,-0.6042129397392273,-0.13648194074630737,0.24867746233940125
1783337837524327000,11.831326904296875,-0.08123227208852768,-0.3433368504047394,0.4425758123397827
1783337837534300200,11.841300048828124,0.4352795481681824,-0.5232104659080505,0.5855817198753357
1783337837544273200,11.851273193359376,0.755312442779541,-0.7108957171440125,0.6558681130409241
1783337837554246100,11.86124609375,0.9576836228370667,-0.8832080960273743,0.6594615578651428
1783337837564219000,11.871218994140625,1.1344122886657715,-0.9770549535751343,0.6464695930480957
1783337837574191000,11.881191162109374,1.2949285507202148,-0.9403315186500549,0.5945773124694824
1783337837584164000,11.8911640625,1.35334312915802,-0.9420940279960632,0.4484475553035736
1783337837594137000,11.90113720703125,1.272283911705017,-1.042073369026184,0.24420787394046783
1783337837604110000,11.911110107421875,1.0628281831741333,-1.1168354749679565,0.07721515744924545
1783337837614083000,11.9210830078125,0.7750131487846375,-1.0297809839248657,0.0647912472486496
1783337837624055000,11.931054931640626,0.47285810112953186,-0.7649006247520447,0.1827317327260971
1783337837634028300,11.9410283203125,0.2785240411758423,-0.35827451944351196,0.3393647372722626
1783337837644001000,11.9510009765625,0.2502966523170471,0.07894568145275116,0.46808305382728577
1783337837653974000,11.96097412109375,0.3846672475337982,0.49105095863342285,0.547085702419281
1783337837663948000,11.970947998046874,0.6208813786506653,0.8108958005905151,0.596616268157959
1783337837673920300,11.980920166015625,0.8735887408256531,0.9194491505622864,0.6503356695175171
1783337837683893200,11.990893310546875,1.0924960374832153,0.7611649632453918,0.6955646872520447
1783337837693866000,12.000865966796875,1.216408371925354,0.39582696557044983,0.6944522857666016
1783337837703839000,12.0108388671875,1.1906657218933105,-0.12880031764507294,0.6536385416984558
1783337837713812200,12.020812255859376,1.0409998893737793,-0.7279173135757446,0.5695593357086182
1783337837723784200,12.0307841796875,0.8518693447113037,-1.2396796941757202,0.4385475218296051
1783337837733757000,12.0407568359375,0.7427375316619873,-1.5726717710494995,0.29539623856544495
1783337837743730200,12.050730224609374,0.7164550423622131,-1.6979870796203613,0.1785058230161667
1783337837753703200,12.060703125,0.6827346086502075,-1.6451551914215088,0.12868979573249817
1783337837763676200,12.07067626953125,0.6015601754188538,-1.3763303756713867,0.1348952353000641
1783337837773648100,12.080648193359375,0.48926475644111633,-0.9486851096153259,0.19652077555656433
1783337837783621000,12.09062109375,0.3665476441383362,-0.43380895256996155,0.30923721194267273
1783337837793594000,12.100593994140626,0.24279320240020752,0.13716824352741241,0.45566391944885254
1783337837803567000,12.110567138671875,0.13932034373283386,0.6877078413963318,0.6261237859725952
1783337837813540000,12.1205400390625,0.11388368904590607,1.0891956090927124,0.7890211343765259
1783337837823512000,12.130511962890624,0.17691032588481903,1.528998851776123,0.8991473317146301
1783337837833485000,12.140485107421876,0.23492808640003204,1.9325838088989258,0.955264151096344
1783337837843458000,12.1504580078125,0.2705287039279938,2.277454137802124,0.9637513756752014
1783337837853431000,12.16043115234375,0.24803350865840912,2.505491256713867,0.9042768478393555
1783337837863404000,12.170404052734375,0.16560867428779602,2.5984623432159424,0.7723220586776733
1783337837873376300,12.180376220703126,0.057792991399765015,2.5533368587493896,0.6131563782691956
1783337837883349200,12.190349365234376,-0.03888454660773277,2.3700578212738037,0.48395228385925293
1783337837893322000,12.200322021484375,-0.09445460140705109,2.048447847366333,0.3989098370075226
1783337837903295000,12.210294921875,-0.11673806607723236,1.607839822769165,0.3380017578601837
1783337837913268000,12.22026806640625,-0.11592314392328262,1.061073899269104,0.2822631299495697
1783337837923240200,12.230240234375,-0.09557925164699554,0.4916781187057495,0.21280814707279205
1783337837933213000,12.240212890625,-0.028978388756513596,-0.018919894471764565,0.14367008209228516
1783337837943186000,12.25018603515625,0.03965127095580101,-0.37112054228782654,0.10179027915000916
1783337837953159200,12.2601591796875,0.05770404264330864,-0.5412792563438416,0.09087690711021423
1783337837963131100,12.270131103515626,0.05604010075330734,-0.563963770866394,0.10947589576244354
1783337837973104000,12.280104248046875,0.0639539510011673,-0.45350730419158936,0.157297745347023
1783337837983077000,12.2900771484375,0.0854821428656578,-0.22352416813373566,0.23988130688667297
1783337837993050000,12.300050048828124,0.11216914653778076,0.08272044360637665,0.34643569588661194
1783337838003023000,12.310023193359376,0.13576075434684753,0.39897215366363525,0.4443870484828949
1783337838012995000,12.3199951171875,0.16570694744586945,0.6716691851615906,0.5134484171867371
1783337838022968000,12.329968017578125,0.19830696284770966,0.8439708948135376,0.5452923774719238
1783337838032941000,12.339941162109374,0.2330108880996704,0.8872321248054504,0.5613810420036316
1783337838042914000,12.3499140625,0.27244511246681213,0.8035593032836914,0.5737418532371521
1783337838052887300,12.35988720703125,0.317024290561676,0.6125683188438416,0.5933594703674316
1783337838062859000,12.36985888671875,0.35907480120658875,0.3525995910167694,0.5995108485221863
1783337838072832000,12.37983203125,0.3966493308544159,0.08073852211236954,0.5813608765602112
1783337838082805200,12.38980517578125,0.4238170385360718,-0.15336079895496368,0.5298668146133423
1783337838092778200,12.3997783203125,0.435526967048645,-0.3282407224178314,0.4600970149040222
1783337838102751000,12.4097509765625,0.4355890154838562,-0.43610700964927673,0.38558152318000793
1783337838112723200,12.41972314453125,0.429323673248291,-0.48161882162094116,0.32560500502586365
1783337838122696200,12.4296962890625,0.4192710220813751,-0.46996164321899414,0.2981443405151367
1783337838132669200,12.439669189453125,0.4097699522972107,-0.39140585064888,0.3062707185745239
1783337838142642000,12.449641845703125,0.4037189781665802,-0.2816753685474396,0.32140520215034485
1783337838152615200,12.459615234375,0.3886875510215759,-0.15506574511528015,0.3401937782764435
1783337838162587100,12.469587158203124,0.3491380214691162,-0.0310500618070364,0.37698137760162354
1783337838172560100,12.47956005859375,0.2990040183067322,0.06669247895479202,0.4255425035953522
1783337838182533000,12.489533203125,0.2447088211774826,0.12076050788164139,0.45951566100120544
