time,seconds_elapsed,z,y,x
1783338288393318400,0.074318359375,0.33833412923216816,-0.019888818520889615,0.03783690563701093
1783338288403291400,0.08429150390625,-0.07617956883907318,0.01858515432708664,-0.03983511198321357
1783338288413263400,0.094263427734375,-0.1767038898617029,0.04994265536651946,-0.07924721278138458
1783338288423236400,0.104236328125,0.148739778137207,0.008650702488364186,-0.012097429425735025
1783338288433209300,0.114209228515625,0.35040509077608584,-0.014895448946696706,0.01991155550908297
1783338288443181300,0.124181396484375,0.10040624760091305,0.008868980314966756,-0.019178345863707362
1783338288453154300,0.134154296875,-0.1263707099407911,0.04481253963618073,-0.08019609273774549
1783338288463127300,0.144127197265625,-0.0007376666247844696,0.032642334951891096,-0.04525392216155305
1783338288473099500,0.154099609375,0.2595353178054094,-0.007905345747468527,0.008810133117064833
1783338288483072300,0.164072265625,0.21187106483280657,0.01701368549297331,0.007060038046725094
1783338288493045200,0.174045166015625,-0.0387993939936161,0.034921894973143935,-0.031913050279673186
1783338288503017500,0.184017578125,-0.04694938270151615,0.025778509030432904,-0.05003043411467224
1783338288512990500,0.193990478515625,0.15013210927844048,0.01728870989193674,-0.012615827276650815
1783338288522963200,0.203963134765625,0.22306875067353246,0.0016799684265977701,0.016352310391236094
1783338288532935400,0.213935302734375,0.0536918426990509,0.017209587090986314,-0.026889413431379943
1783338288542908400,0.223908447265625,-0.04302899438738823,0.021655933224689214,-0.05723472120398655
1783338288552881400,0.23388134765625,0.08189619292020797,0.004729672570130788,-0.024931831356510517
1783338288562853400,0.243853271484375,0.21152561239600182,-0.003910159181058407,0.015027308865170924
1783338288572826400,0.253826416015625,0.12581249153614044,0.014489060102892108,-0.009691774789802729
1783338288582798600,0.263798583984375,-0.0178682496458292,0.02636803588879993,-0.051857868737541134
1783338288592771300,0.273771240234375,0.029831659162044524,0.028283397673582657,-0.04242434302512556
1783338288602744300,0.283744384765625,0.1538999373793602,0.007850898446759675,-0.017974797026533634
1783338288612716500,0.293716552734375,0.15363456444144247,0.006555865083984099,-0.01829902401221916
1783338288622689500,0.303689453125,0.037356209447979925,0.013988106577121653,-0.037044750612322236
1783338288632662300,0.313662353515625,0.0053010290175676345,0.014412873611121903,-0.037451943173725154
1783338288642634500,0.323634521484375,0.1176788694411516,0.01850134393457556,-0.02114370938623324
1783338288652607500,0.333607421875,0.14853461095392703,0.007419891184929292,-0.017095803968608377
1783338288662580500,0.34358056640625,0.07686287492811679,0.019045339734340087,-0.01885848452588543
1783338288672552400,0.353552490234375,0.02955459578633308,0.016386897647427394,-0.039721239812579
1783338288682525400,0.363525390625,0.07922551240622996,0.018323530549101998,-0.02984756911722943
1783338288692498400,0.37349853515625,0.14149229122698306,0.014113463689573108,-0.022657876808848232
1783338288702470400,0.383470458984375,0.10349661483168601,0.009918277022056282,-0.012807422592304647
1783338288712443400,0.393443359375,0.020582769301533698,0.021254784528294112,-0.04173245177082717
1783338288722416400,0.40341650390625,0.04301438134014606,0.011851252095343079,-0.03429415499623865
1783338288732388600,0.413388671875,0.1275695643365383,0.006693780283909291,-0.01449435276594013
1783338288742361300,0.423361328125,0.1204027414470911,0.015265097393130417,-0.018597239773813633
1783338288752333300,0.433333251953125,0.06862228532731533,0.0011635410537710414,-0.018361293859779835
1783338288762306600,0.443306640625,0.06666296795308589,0.02735504904859699,-0.027671321056690065
1783338288772279600,0.453279541015625,0.10856734222471713,0.02173788730354281,-0.02987031067200005
1783338288782251300,0.463251220703125,0.10274375063776969,0.02771207090889802,-0.021798739228863266
1783338288792224500,0.473224609375,0.07341478030085563,0.009553873289609327,-0.031981348009221255
1783338288802197500,0.483197509765625,0.06187924080789089,0.010648470443149562,-0.02600462995348498
1783338288812169200,0.493169189453125,0.08806699050962924,0.02729838924120413,-0.022244455436058342
1783338288822142500,0.503142578125,0.1084293950587511,0.003632789844670333,-0.020346585925482212
1783338288832115500,0.513115478515625,0.09526537758111953,0.015678525615786202,-0.013302987556904554
1783338288842087400,0.52308740234375,0.05859539683163166,0.016406017906428313,-0.02333908227235079
1783338288852060400,0.533060302734375,0.08118658334612847,0.0241085710907937,-0.030220786343794315
1783338288862033400,0.543033447265625,0.10558569606542587,0.011597825323545839,-0.027395390192139893
1783338288872005400,0.55300537109375,0.09766367089450359,0.01027715291272616,-0.029957313102018088
1783338288881978400,0.562978271484375,0.0645890842884779,0.01101645893874811,-0.01754002233846113
1783338288891950300,0.572950439453125,0.06952361808121205,0.02022218322767876,-0.024548677257820964
1783338288901923300,0.58292333984375,0.09032558309137821,0.02003445808625547,-0.03090253979656845
1783338288911896600,0.592896484375,0.1084381628870964,0.0035015783801674843,-0.020656656521651894
1783338288921868300,0.602868408203125,0.07955752083957195,0.01687550314827822,-0.03803874835204333
1783338288931841300,0.61284130859375,0.06728373019993304,0.0249245727819507,-0.03006859145676717
1783338288941814500,0.622814453125,0.08703881650567054,0.0075326787934638555,-0.020558109784312543
1783338288951786200,0.6327861328125,0.09647183076143265,0.026995355740597006,-0.008967552168481052
1783338288961759200,0.64275927734375,0.09811784440279006,0.008400237141922116,-0.02901937466477975
1783338288971732500,0.652732421875,0.07746317890882491,0.023260192366840782,-0.03411342813447118
1783338288981704400,0.662704345703125,0.10335165340304374,0.0067033837958937505,-0.020747604474425314
1783338288991677200,0.67267724609375,0.09557809679210186,-0.0035179541262332346,-0.023935952186957002
1783338289001650400,0.682650390625,0.09334054699838161,0.0032523711257614195,-0.030286033599730578
1783338289011622400,0.692622314453125,0.07628361373543739,0.018012471288954838,-0.031417649711854755
1783338289021595400,0.702595458984375,0.08421382221281527,0.005477858305640984,-0.033537966334074736
1783338289031568400,0.712568359375,0.09977613300383091,0.00636677453595912,-0.02170220178551972
1783338289041540400,0.722540283203125,0.09918050519824027,0.02270648574052611,-0.016656718431599438
1783338289051513300,0.732513427734375,0.06940379109382629,0.023113098346616606,-0.02274118944443762
1783338289061485300,0.7424853515625,0.0849666864067316,0.008339369233581237,-0.026178506949357687
1783338289071458300,0.752458251953125,0.10427461346685886,0.01813511585451197,-0.034271029848977924
1783338289081431300,0.762431396484375,0.09724632226526736,0.01652050656499341,-0.022867500971537082
1783338289091403000,0.772403076171875,0.08273264374434948,0.01411990713009145,-0.025530363505240527
1783338289101376000,0.7823759765625,0.08632336171269417,0.008424990273977164,-0.021659915280062704
1783338289111349000,0.792348876953125,0.0957546224027872,0.012196789013827218,-0.03559621403813362
1783338289121321000,0.802321044921875,0.09037000675499439,0.012084709224768448,-0.027261534679401664
1783338289131294000,0.8122939453125,0.08348726150393486,0.008044105764187407,-0.024849651232082395
1783338289141267000,0.822266845703125,0.0869271728247404,0.017198730053543113,-0.022069226733315735
1783338289151239000,0.832239013671875,0.07405775437951087,0.011677870573103427,-0.02191748850401491
1783338289161212000,0.8422119140625,0.10024608860313891,0.000824509224598296,-0.02005357606196776
1783338289171184000,0.85218408203125,0.07121814703941345,0.024542797789594624,-0.016551687154546378
1783338289181157000,0.8621572265625,0.0845353092521429,0.00724234037764836,-0.03184347390849143
1783338289191129900,0.8721298828125,0.08453706281781197,0.011894447349675465,-0.020849420881085098
1783338289201102000,0.88210205078125,0.09875964943766594,0.009542278749938122,-0.020472294664382933
1783338289211075000,0.892074951171875,0.0858949071675539,0.010922908036934676,-0.030357089541945603
1783338289221048000,0.902048095703125,0.08095569719970226,0.01647956034996314,-0.02216444900240749
1783338289231020000,0.91202001953125,0.09921031581461429,0.01256803119572578,-0.026241708378680048
1783338289240993000,0.921992919921875,0.09906360082030295,0.019692334684275555,-0.02689971562968567
1783338289250966000,0.931966064453125,0.08679623992145061,0.014977409875416197,-0.026345771541353313
1783338289260938000,0.94193798828125,0.08096037337481975,0.010118617333169095,-0.02811871776431799
1783338289270911000,0.951910888671875,0.08335340599119663,0.024430795632349327,-0.02470987743521109
1783338289280884000,0.961884033203125,0.08874620494544505,0.018003112088853957,-0.02363035683650523
1783338289290856200,0.971856201171875,0.08111994785070419,0.01646866906319046,-0.021062095517385748
1783338289300829000,0.981828857421875,0.08815642235875129,0.00367739617137704,-0.019889508074056355
1783338289310801200,0.99180126953125,0.08516367028355598,0.014678831070929299,-0.023783812098857014
1783338289320774100,1.001774169921875,0.08516425480544566,0.020031487527745775,-0.0174608196224086
1783338289330747100,1.0117470703125,0.07678922517001628,0.02020875292394776,-0.01537217678008601
1783338289340719000,1.021718994140625,0.08726911813020706,0.013356430210615507,-0.03435956664895638
1783338289350692000,1.031692138671875,0.08981529548168182,0.002611696318758186,-0.01975479404479265
1783338289360665000,1.0416650390625,0.08577449565827847,0.008535579075559508,-0.03188166876072064
1783338289370637000,1.051636962890625,0.08981646452546119,0.017009742253506554,-0.025525029742997137
1783338289380610000,1.061610107421875,0.09191256002187728,0.01818743284692755,-0.025494616338424383
1783338289390583000,1.0715830078125,0.08308569496572017,0.004164517534617334,-0.024381266535352913
1783338289400555000,1.081554931640625,0.07425882990956306,0.011166621698893141,-0.027151790694613008
1783338289410528000,1.091528076171875,0.10119593667387962,0.018497279680811333,-0.015547789075318723
1783338289420501000,1.1015009765625,0.07426350608468055,0.01439244046115782,-0.025803828418068588
1783338289430473200,1.11147314453125,0.08818097227811812,0.008516180255345535,-0.012725552995130418
1783338289440446000,1.121446044921875,0.08923018907010555,0.019900766970298717,-0.0232919186623767
1783338289450418000,1.13141796875,0.08384674246609211,0.008927795546827837,-0.023474088562559337
1783338289460391200,1.14139111328125,0.07786649901270866,0.012622989953088108,-0.022255415221489966
1783338289470364200,1.1513642578125,0.08295651562809944,-0.0013823851359542458,-0.011401428251899779
1783338289480336000,1.1613359375,0.08565174606144428,0.0067614729419699865,-0.00610739523069933
1783338289490309000,1.17130908203125,0.09208440945744514,0.007166464413132053,-0.022907266726344824
1783338289500282000,1.1812822265625,0.0925350758343935,0.009065544066682923,-0.025247071318142116
1783338289510253800,1.19125390625,0.09148819712996482,0.013226195993646979,-0.015948935488425194
1783338289520227000,1.20122705078125,0.08326163605451584,0.020467549990606494,-0.012373122828267514
1783338289530200000,1.211199951171875,0.08969956014752388,0.009661909374501556,-0.01270334116332233
1783338289540172000,1.221172119140625,0.08401391572654247,0.012362224691628943,-0.024507358866743743
1783338289550145000,1.23114501953125,0.08805763815939426,0.016043707949656528,-0.02110549626769498
1783338289560117000,1.241116943359375,0.07953004831075668,-0.0028432423355989156,-0.013707513237185776
1783338289570090000,1.251090087890625,0.08865794214010238,0.016274842974543572,-0.01984544973662123
1783338289580063200,1.261063232421875,0.07788286562561988,0.007153198506182525,-0.019282390760071575
1783338289590035000,1.271034912109375,0.07833294748067855,0.013277503772487398,-0.023431564595084636
1783338289600008000,1.281008056640625,0.10481821882426738,0.010401795355835929,-0.02524608493745327
1783338289609981200,1.290981201171875,0.09299392551779746,0.0131640197609202,-0.02323507390860468
1783338289619953000,1.300952880859375,0.08341945696473121,0.007938994572032242,-0.02584909233190119
1783338289629926000,1.31092578125,0.0858165812343359,0.01254721673656022,-0.02365611233226955
1783338289639899100,1.320899169921875,0.0906049845546484,0.006858572074316907,-0.023968922874797134
1783338289649871000,1.33087109375,0.08507014678120613,0.014637293484143447,-0.02658891438115388
1783338289659843800,1.34084375,0.08372107025980949,0.00877703456506133,-0.018285689606610686
1783338289669816000,1.350816162109375,0.07384966458678245,0.010139979781606233,-0.024116240657307206
1783338289679789000,1.3607890625,0.09569850830137729,0.011926705651462543,-0.010724698034115136
1783338289689762000,1.370761962890625,0.08777063791155815,0.010788821912044659,-0.010618716908991336
1783338289699734000,1.380734130859375,0.07969312991797924,0.0034289972011465578,-0.011126154974475503
1783338289709707000,1.39070703125,0.06757423757910729,0.002068241658399347,-0.020791498415078966
1783338289719680000,1.400679931640625,0.08912380608618259,0.011633825935400091,-0.03193020234387368
1783338289729652000,1.41065185546875,0.07805471506118775,0.016965562901773954,-0.010248294427711515
1783338289739625000,1.420625,0.07222001755833625,0.00927719122309936,-0.005556629480142146
1783338289749598000,1.430597900390625,0.09721358903944492,0.01867555657387711,-0.008255494908988475
1783338289759570200,1.440570068359375,0.10320201579928398,0.008478862185950856,-0.02640879030758515
1783338289769543000,1.45054296875,0.07776245411634444,0.005161435600498226,-0.01387483262810856
1783338289779515100,1.46051513671875,0.07566811218559742,0.020732089528173674,-0.02224701271932572
1783338289789488000,1.470488037109375,0.09392506888806819,0.012609130391094367,-0.03117748428042978
1783338289799461000,1.480461181640625,0.08390285656750202,0.005421415410668123,-0.01938276412831619
1783338289809433000,1.49043310546875,0.08450199150443076,0.0066939903464633965,-0.025046288049034773
1783338289819406000,1.500406005859375,0.08345219019055367,0.012188601140794343,-0.01973020759280771
1783338289829379000,1.510379150390625,0.07776654576957226,0.008549150943185669,-0.021810484465584156
1783338289839351000,1.52035107421875,0.09303133491873741,0.008133902939490508,-0.014843476730864493
1783338289849324000,1.530323974609375,0.09826982009410858,0.004139417342690285,-0.017816117599792777
1783338289859297000,1.540297119140625,0.08629764274954796,0.0044681994891958305,-0.02515900944219902
1783338289869269200,1.550269287109375,0.09138532127737999,0.011740978387591893,-0.030996264228317884
1783338289879242000,1.560241943359375,0.08345511280000209,0.008867740489239804,-0.018545673983357845
1783338289889214000,1.5702138671875,0.08839666085541248,0.019887133453879505,-0.02112129662502557
1783338289899187200,1.580187255859375,0.08061258285045624,0.0173091270588804,-0.01956433124030009
1783338289909160000,1.590159912109375,0.0889969648361206,0.012431273623136802,-0.031080234451033174
1783338289919132000,1.6001318359375,0.08076923471689224,0.0026220327663933857,-0.0065888586047105485
1783338289929105200,1.610105224609375,0.08615969558358191,0.0013840839026961476,-0.007529299526289105
1783338289939078100,1.620078125,0.08885434149503707,0.006320779969764407,-0.029487686296273023
1783338289949049900,1.6300498046875,0.08975333616137504,0.0007902667449903674,-0.025399156607314944
1783338289959023000,1.640023193359375,0.09334697673916816,0.010310858819505666,-0.022928126851283013
1783338289968996000,1.64999609375,0.10277473029792308,0.016843754019855987,-0.01796257686577737
1783338289978967800,1.6599677734375,0.08092822467088699,0.0033996820584055966,-0.028855891198758036
1783338289988941000,1.669941162109375,0.08751637088954448,0.007722616441571154,-0.014502408208232372
1783338289998913000,1.6799130859375,0.08287702065110206,0.004283796532731503,-0.017672599209565668
1783338290008886000,1.689885986328125,0.09978782344162464,0.008071792922134046,-0.01595182156525552
1783338290018859000,1.69985888671875,0.09051496818363666,0.02209630425319774,-0.02746681146053597
1783338290028831000,1.7098310546875,0.08767536084353923,0.007562541925476398,-0.029742976231593637
1783338290038804000,1.719803955078125,0.09336392787396908,0.0176600388388033,-0.01842918973052874
1783338290048777200,1.729777099609375,0.0953103857666254,0.009204482179915065,-0.025117453589104114
1783338290058749000,1.7397490234375,0.08244155184328555,-0.007584934137086384,-0.004911865303199738
1783338290068722000,1.749721923828125,0.08483692254722118,0.004035116717999335,-0.023118297394830734
1783338290078695200,1.759695068359375,0.0884305631250143,0.004648873835324775,-0.03022305136611685
1783338290088667000,1.7696669921875,0.0842436328291893,0.023500394330883863,-0.017558635707385837
1783338290098641000,1.779640869140625,0.0763134243518114,0.012503925584105308,-0.014235921025462448
1783338290108613000,1.789613037109375,0.08005728705525397,0.009182939351676031,-0.03015005919514224
1783338290118586000,1.799586181640625,0.0957721580594778,0.011400642800610513,-0.017184359034895895
1783338290128558800,1.809558837890625,0.08903846589028835,0.010977859944431111,-0.013578772290982305
1783338290138531000,1.819531005859375,0.08305120817422866,0.010147710996912791,-0.01574024290749803
1783338290148504000,1.829504150390625,0.0915852277636528,0.01823204145692289,-0.017838530361000447
1783338290158477000,1.83947705078125,0.08679916253089905,0.008847311905852985,-0.021951244643144307
1783338290168449000,1.849448974609375,0.08156243092119693,0.006923750831594224,-0.022971162275411187
1783338290178422000,1.859422119140625,0.07647767500281333,0.006293012896715663,-0.013891619366127997
1783338290188395000,1.86939501953125,0.09159282654821872,0.003770013208140153,-0.015325835154019295
1783338290198367000,1.879366943359375,0.07977437846064567,0.01578829928332707,-0.02778471830328926
1783338290208340000,1.889340087890625,0.07783142769932747,0.005668704702623654,-0.01691527803624049
1783338290218312000,1.89931201171875,0.0827712221890688,0.016128032082109712,-0.012212342775985598
1783338290228285200,1.90928515625,0.08247136245965957,0.006387817323987838,-0.02331283358624205
1783338290238258000,1.9192578125,0.08950783696770667,0.013093367960792966,-0.006727152830548584
1783338290248230000,1.92922998046875,0.09160510150790215,0.012086286977212875,-0.022058687072992324
1783338290258203100,1.939203125,0.08053074978590011,0.009299791213974822,-0.024471264640055595
1783338290268176100,1.949176025390625,0.07454641467928887,0.005085671517124865,-0.01306364410938695
1783338290278147800,1.95914794921875,0.07604571332633495,0.014917843441595323,-0.0204329125020653
1783338290288121000,1.96912109375,0.08831716587841511,0.023131323556473942,-0.02533129726918414
1783338290298094000,1.979093994140625,0.0827834971487522,0.02175971097628353,-0.01744748521680012
1783338290308065800,1.989065673828125,0.07874678897857666,0.008705138372629881,-0.014642035874631256
1783338290318039000,1.9990390625,0.08159165701568126,0.0044476978405728,-0.005739329103287309
1783338290328011000,2.009010986328125,0.085633625882864,0.01658350478162756,-0.00448015935504809
1783338290337984000,2.01898388671875,0.0797995129019022,0.0072545468386728314,-0.019223189652431756
1783338290347957000,2.02895703125,0.08444061670601367,0.00341946903768694,-0.019153741145413367
1783338290357929000,2.038928955078125,0.08893032934069633,0.0022858847307623362,-0.013598225910123437
1783338290367902000,2.04890185546875,0.10060323147773742,0.010700878767110407,-0.021479389347694812
1783338290377875200,2.058875244140625,0.08579086227118969,0.008900044456799514,-0.013953834414761513
1783338290387847000,2.068846923828125,0.0750192928880453,0.0021091102416161446,-0.0027885530062951146
1783338290397820000,2.07881982421875,0.08833762414455414,0.009486573357193264,-0.018755809602700173
1783338290407792000,2.088792236328125,0.08235095095038414,0.006986182792647741,-0.01070738157313317
1783338290417764900,2.098764892578125,0.09551730651557445,0.009007381855370476,-0.011801040295045822
1783338290427737900,2.10873779296875,0.07232347793281078,0.018880280799162572,-0.006719828040618449
1783338290437710000,2.1187099609375,0.07771335427761078,0.01809200279857032,-0.028608821102511135
1783338290447682800,2.128682861328125,0.09687164373397826,0.015174907492182683,-0.027404852140229193
1783338290457655800,2.13865576171875,0.09088613958358764,0.013103074220765848,-0.023509214674867687
1783338290467628000,2.1486279296875,0.08774316538274288,0.009593463231192435,-0.017679065482970328
1783338290477601000,2.15860107421875,0.09103577718734741,0.012504366258811205,-0.016914583916496483
1783338290487573800,2.16857373046875,0.07682020483016967,0.004874439919239375,-0.01884902257779613
1783338290497546000,2.1785458984375,0.08729600613713263,0.007572376049612649,-0.00624855726705864
1783338290507519000,2.18851904296875,0.08505202660262584,0.005258753928553779,-0.014158892000187188
1783338290517491000,2.198490966796875,0.08969254588484764,0.001039923807256855,-0.017985848143510518
1783338290527464000,2.2084638671875,0.07233341480493545,0.013260470439295749,-0.020856636073160916
1783338290537437000,2.21843701171875,0.08983867635726928,0.008636457050591706,-0.023029395268671215
1783338290547409200,2.2284091796875,0.07816694326400757,0.01449012868197169,-0.02199446273036301
1783338290557382000,2.2383818359375,0.08998831396102905,0.003080868750065565,-0.013602244498115031
1783338290567355000,2.24835498046875,0.08101414938867092,0.008343860462319571,-0.0010417824042029677
1783338290577327000,2.2583271484375,0.09553191956281662,0.013136684229422825,-0.011723993003461509
1783338290587300000,2.268300048828125,0.09104396049380302,0.010663736510940361,-0.021115780199691653
1783338290597272800,2.27827294921875,0.09209493085145949,0.013364213941560591,0.001000792806688696
1783338290607245000,2.2882451171875,0.09030278673768043,0.0033252285827067678,-0.016387747030798344
1783338290617218000,2.298218017578125,0.07144844866394996,0.001839159309992101,-0.012799038356449454
1783338290627189800,2.308189697265625,0.08656243116557598,0.013118091410095803,-0.004254935764428228
1783338290637163000,2.3181630859375,0.09030337125957012,-0.004857963708473835,-0.008898450721334666
1783338290647136000,2.328135986328125,0.09120119688212872,0.0022303323183557947,-0.012335183704365043
1783338290657108000,2.33810791015625,0.08776128556132316,0.013748527950874995,-0.010325177322514355
1783338290667081000,2.3480810546875,0.09599310733377933,0.010128720885363873,-0.015358221319969743
1783338290677054000,2.358053955078125,0.08566869719624519,0.012820645116770174,-0.019371165022067725
1783338290687026000,2.36802587890625,0.09659399583637714,0.0011795880062738433,-0.01707258748980239
1783338290696999200,2.377999267578125,0.09749240598082543,-0.0012321652935934253,-0.019293916801083832
1783338290706971000,2.387970947265625,0.09016191696226596,0.002841303823550697,-0.02732678193533793
1783338290716944000,2.39794384765625,0.0997369700372219,0.0033500821794616056,-0.015864070216566325
1783338290726917000,2.407917236328125,0.08776654625833034,-0.0006968345741857774,-0.008062821881100534
1783338290736888800,2.417888916015625,0.08716916488707065,0.00881743050753139,-0.020447105424199252
1783338290746861800,2.42786181640625,0.08163315806984901,0.006897926837170961,-0.013392291541863232
1783338290756835000,2.4378349609375,0.0921077903330326,0.014207793192809912,-0.02071280715567991
1783338290766807000,2.44780712890625,0.09211071294248104,0.010651498083875048,-0.023168876804597675
1783338290776779800,2.45777978515625,0.08014379629492759,0.00897982712816447,-0.030202921893540766
1783338290786753000,2.4677529296875,0.09675473935604095,0.023028367788787,-0.001433996592182666
1783338290796725000,2.47772509765625,0.08358779926896094,0.00942535153911449,-0.007683887299802154
1783338290806698000,2.487697998046875,0.0747580116033554,0.013608799819776321,-0.012812409294676036
1783338290816670000,2.497669921875,0.07984393656551837,-0.0008975219451705925,-0.012706482968479394
1783338290826643000,2.507642822265625,0.07550503057837486,0.013269713191676418,-0.012831716783344745
1783338290836616000,2.517615966796875,0.0834375771433115,0.02302871941523626,-0.031177466014120726
1783338290846588000,2.527587890625,0.07056757417619228,0.0084455718377023,-0.019261347972042858
1783338290856561000,2.537560791015625,0.08987199410498142,0.005874349093227647,-0.01891185868093744
1783338290866534000,2.547533935546875,0.10064707061946392,0.0028168269694200717,-0.01497117649745196
1783338290876506000,2.557506103515625,0.08089432240128516,0.0050389919643406755,-0.011839582207147032
1783338290886478800,2.567478759765625,0.08568389476537704,0.006547202286915853,-0.0031332199918106198
1783338290896451000,2.577451171875,0.09182371269464493,0.012823022020235657,-0.020916385170072316
1783338290906424000,2.587424072265625,0.09496551785171031,0.00892381577474298,-0.019294008132629097
1783338290916396800,2.597396728515625,0.07715630491673946,0.003869617108115926,-0.021781514099426566
1783338290926369000,2.607369140625,0.08643266730606555,0.01431042245022254,-0.018810498932003972
1783338290936342000,2.617342041015625,0.09601122751235962,0.014551124454475938,-0.022796883420739322
1783338290946315000,2.62731494140625,0.0803004481613636,0.007712809716898482,-0.00915089111244306
1783338290956287000,2.637286865234375,0.08583528593480587,0.017881426504522097,-0.011609609376173466
1783338290966260000,2.647260009765625,0.08583470141291617,0.02293259524713503,-0.019859332131501286
1783338290976233000,2.65723291015625,0.07969722157120704,0.01884574149203254,-0.014688761093188077
1783338290986205000,2.667204833984375,0.08179097898006439,0.014636156406404916,-0.02535065955678001
1783338290996178000,2.677177978515625,0.08373626782894134,0.01758713571608532,-0.023720428006444125
1783338291006150000,2.68714990234375,0.09361468776464461,0.00907196467431495,-0.007337028357200324
1783338291016123100,2.697123046875,0.09406710770726204,0.0010979581544059327,-0.01752610341096297
1783338291026095900,2.707095947265625,0.0841951175123453,-0.001055144209275022,-0.011551668643858284
1783338291036067800,2.71706787109375,0.09511807806491851,0.019305678020825143,-0.019808898852206765
1783338291046041000,2.727041015625,0.09362228654921054,0.0059330022115958855,-0.0013685118742287159
1783338291056014000,2.73701416015625,0.09377309319674969,0.0061495401722611856,-0.005212291288189589
1783338291065985800,2.74698583984375,0.089585578379035,0.0063229102780576795,-0.016629848690982905
1783338291075959000,2.756958984375,0.07372165429294109,0.008060451827500946,-0.019849523123539985
1783338291085931000,2.766930908203125,0.08644143513441085,0.004650431038171518,-0.028819102852325886
1783338291095903500,2.776903564453125,0.09557283609509468,0.008517417797783856,-0.013880275988206266
1783338291105876500,2.78687646484375,0.08719488385021686,0.014609841504925862,-0.007539546925667673
1783338291115848200,2.79684814453125,0.0758212569206953,0.0034879014812642705,-0.016097440581023692
1783338291125821400,2.806821533203125,0.09751812494397163,0.009274147599353454,-0.015369729094672947
1783338291135794400,2.81679443359375,0.09078618634045124,0.009550028231553733,-0.01336109268600121
1783338291145766100,2.82676611328125,0.08135843278169631,-0.002512841337453574,-0.022355076203681528
1783338291155739400,2.836739501953125,0.08719605289399623,0.015630560571502427,-0.01839576238496229
1783338291165711400,2.84671142578125,0.09782090728282927,0.01664043401707895,-0.025542967258486895
1783338291175684400,2.856684326171875,0.08195990580618381,0.005010135762614663,-0.014004742618091403
1783338291185657300,2.8666572265625,0.08974339928925038,-0.00005773295304970815,-0.013791008535865694
1783338291195629300,2.87662939453125,0.09513093754649161,0.006818762937025167,-0.01915401514004916
1783338291205602300,2.886602294921875,0.07447977918386459,0.01556985249336576,-0.01318935284828767
1783338291215575600,2.896575439453125,0.0871978064596653,0.003147490545758046,-0.01622656511971727
1783338291225547300,2.90654736328125,0.08899638031423092,0.009318000440811738,-0.004462349703721702
1783338291235520300,2.916520263671875,0.07642623707652091,0.02380153041863814,-0.0011872735558077691
1783338291245493500,2.926493408203125,0.09198679430186749,0.0004878223328501917,-0.015013408203981816
1783338291255465200,2.93646533203125,0.09527999062836169,0.010817755745584145,-0.005702412892691791
1783338291265438200,2.946438232421875,0.08720248263478278,0.015111363569565581,-0.019670348898041992
1783338291275410400,2.956410400390625,0.08361234918832779,0.002972453639260493,-0.011091668182983993
1783338291285383400,2.966383544921875,0.07912322107553482,0.00580777752988506,-0.011394633184932172
1783338291295356200,2.976356201171875,0.08870002771615981,0.006214730345981661,-0.0033049415632151065
1783338291305328400,2.986328369140625,0.09603285482227801,0.005357003838371019,-0.019000724274478853
1783338291315301400,2.99630126953125,0.07418459562957286,0.01435983281621011,-0.01470978561490774
1783338291325274400,3.0062744140625,0.08944821573495865,0.015337683138728606,-0.017376739801838993
1783338291335246300,3.016246337890625,0.08570786016285419,0.014988198414200451,-0.006421046023443341
1783338291345219300,3.02621923828125,0.08017302238941192,0.014353108531190081,-0.014284929532650857
1783338291355191300,3.03619140625,0.08316811255216598,0.019808556358912027,-0.01930699547836557
1783338291365164300,3.046164306640625,0.08586217394173144,0.005634115163143724,-0.023466234049666673
1783338291375137300,3.05613720703125,0.0752373195528984,0.004385615222679917,-0.008821366897132248
1783338291385109500,3.066109619140625,0.07628828991055488,0.01746093835341744,-0.010186225509550421
1783338291395082200,3.076082275390625,0.08586685011684894,0.01129766191674862,-0.0075769928592257195
1783338291405055200,3.08605517578125,0.10008300699591637,0.005410524123895448,-0.012485844221431761
1783338291415027500,3.09602734375,0.08257365379035472,0.012204739424842409,-0.000893587838858366
1783338291425000400,3.10600048828125,0.08825988273322581,0.00941162212457275,-0.020619667245820164
1783338291434973200,3.11597314453125,0.09469780682623385,0.010586908415064681,-0.013919786014687269
1783338291444945400,3.1259453125,0.08108312297165393,0.010606747909984551,-0.013253394527826458
1783338291454918400,3.13591845703125,0.07883855891525746,0.012807406609284226,-0.000515639638248831
1783338291464890400,3.145890380859375,0.10487725553512572,0.004447558559966274,-0.007327219349239021
1783338291474863400,3.15586328125,0.08781915322840213,0.002464935658674221,-0.017188085361942648
1783338291484836400,3.16583642578125,0.07449731484055519,0.012945193945046047,-0.0204602571667172
1783338291494808300,3.175808349609375,0.07150397824347018,0.006898280746908858,-0.019120386865083126
1783338291504781300,3.18578125,0.087815646097064,-0.009509949666203464,-0.01354653225550428
1783338291514753300,3.195753173828125,0.08916472261846065,0.010245230254367925,-0.008830993242003022
1783338291524726300,3.205726318359375,0.10532324573695659,0.01095062944421079,-0.02476610113447532
1783338291534699500,3.215699462890625,0.08766600849330425,0.006179978693008888,-0.00875820200042799
1783338291544671200,3.225671142578125,0.08901566953659057,0.015427528263092972,-0.006544270544312894
1783338291554644200,3.235644287109375,0.08512626088261604,0.013199707562231924,-0.020420546210836617
1783338291564617500,3.245617431640625,0.086025255548954,-0.0001409200077643618,-0.004682696189824491
1783338291574589200,3.255589111328125,0.07615268083214759,0.005313899915583897,-0.009471592700481415
1783338291584562200,3.265562255859375,0.08408756548464298,0.002559849683800712,-0.012771492762397973
1783338291594535400,3.275535400390625,0.08932488161623478,0.013165853241691365,-0.018155870948173104
1783338291604507400,3.28550732421875,0.07211714170575141,0.00882339902401436,0.0005718998701311648
1783338291614480400,3.29548046875,0.07735562688112259,0.0008928708862280473,-0.007328260528855025
1783338291624452400,3.305452392578125,0.08573708625733852,0.005685712919640354,-0.013252627342846244
1783338291634425300,3.31542529296875,0.10085106875896453,0.004053074783086776,-0.007537519365362823
1783338291644398300,3.3253984375,0.07975392019450664,0.009632466367597226,-0.01675793205006048
1783338291654370300,3.335370361328125,0.09022679889202118,0.006397274705499876,-0.01533626521648839
1783338291664343300,3.34534326171875,0.09112403999269009,0.008054200183227658,-0.02389403100768104
1783338291674316300,3.35531640625,0.08783259723186493,0.00576007506379392,-0.011736596756707877
1783338291684288300,3.365288330078125,0.08603694598674774,0.005708109697827603,-0.007688052018266171
1783338291694261200,3.37526123046875,0.08409165713787078,0.021911714067065623,-0.013360617761965841
1783338291704233500,3.3852333984375,0.09397007707357406,0.00794844967025565,-0.014477858288865535
1783338291714206500,3.39520654296875,0.09262333863973617,0.004758741117699537,-0.010883158265147358
1783338291724179200,3.40517919921875,0.08184767760336399,0.007638790066039655,-0.016036979098059238
1783338291734151400,3.4151513671875,0.08333937746584415,-0.005713105533353518,-0.00019325754977762697
1783338291744124400,3.42512451171875,0.09366320308148861,0.00683254030062817,-0.016091248302254824
1783338291754097400,3.435097412109375,0.08333879294395447,0.004166239134245552,-0.014864263790566472
1783338291764069400,3.4450693359375,0.07975041306316852,0.019412040455150416,-0.0047468839998357
1783338291774042400,3.45504248046875,0.08408990357220172,0.007645854561065789,-0.01745530319707468
1783338291784014300,3.465014404296875,0.0875327375024557,0.009783592675544787,-0.01982431561704725
1783338291793987300,3.4749873046875,0.09351590356528758,0.0019351738802390172,-0.020802038075402377
1783338291803960300,3.484960205078125,0.07720540475547313,0.0005179389099008403,-0.011099705358967184
1783338291813932500,3.4949326171875,0.0851367822766304,0.005409062819171231,-0.017199867131281642
1783338291823905300,3.5049052734375,0.07630699461102486,0.008097450236487202,-0.010365783327538519
1783338291833878300,3.514878173828125,0.0921691651314497,-0.01187011662601726,-0.007183317366521805
1783338291843850500,3.5248505859375,0.0876858822375536,-0.00144935627480736,-0.012220617413986473
1783338291853823500,3.534823486328125,0.08918634992837905,0.01974803551044315,-0.01851113239293918
1783338291863795200,3.544795166015625,0.08245207323729992,-0.002101961264910642,-0.00655855479799211
1783338291873768400,3.5547685546875,0.07212707857787609,0.0079724584502168,-0.01749128782590851
1783338291883741400,3.564741455078125,0.08200432946979999,0.005777893848274834,-0.016845756463985888
1783338291893713200,3.574713134765625,0.09113222329914569,0.006363201189250685,-0.008022197609767317
1783338291903686400,3.584686279296875,0.07945990568399429,0.007915862574905622,-0.01748054723618552
1783338291913659400,3.594659423828125,0.07362170104980469,0.0006143713219673373,-0.013377167037967591
1783338291923631400,3.60463134765625,0.08125321884155273,0.0067810749748721715,-0.018768723883200437
1783338291933604400,3.614604248046875,0.09427285941243171,0.01641417837999761,-0.009298647286370396
1783338291943577300,3.624577392578125,0.08349778289794921,0.0103778025588952,-0.018184421189222484
1783338291953549300,3.63454931640625,0.07960252902507782,0.007001277613791171,-0.01401106276102364
1783338291963522600,3.6445224609375,0.0843874252140522,0.001220150628814008,-0.013531243354827164
1783338291973494300,3.654494384765625,0.09815700736939907,0.010481920520495623,-0.01493661664072424
1783338291983467300,3.66446728515625,0.08708265564739703,0.006889015161641873,-0.01841108781825751
1783338291993440500,3.6744404296875,0.07870236531496047,0.0022438516703434286,-0.017988862084504217
1783338292003412200,3.684412109375,0.08828151004314422,0.004117305975581985,-0.017756879959534854
1783338292013385200,3.69438525390625,0.09022913697957992,0.014403299781889653,-0.01841536213457584
1783338292023358500,3.7043583984375,0.07796002251505851,0.01231854538010666,-0.00625118761556223
1783338292033330400,3.714330322265625,0.0893324804008007,0.010497985739307478,-0.02256665486143902
1783338292043303200,3.72430322265625,0.08170154713094234,-0.004383395866130012,-0.019828918726928532
1783338292053275400,3.734275390625,0.09307575858235359,0.00465697494338965,-0.023208313765842467
1783338292063248400,3.744248291015625,0.08454583064615726,0.020014337746833914,-0.006756433723960072
1783338292073221400,3.754221435546875,0.08379764262735843,0.019412510812608523,-0.003616948388144374
1783338292083193300,3.764193359375,0.09097907856404781,-0.0050978460121084935,-0.0188960765899159
1783338292093167000,3.7741669921875,0.09038578884601592,0.005749635868170298,-0.02215480439122766
1783338292103140000,3.78414013671875,0.07991466371417046,0.005760024831444025,-0.004204447686206549
1783338292113112300,3.7941123046875,0.08470482060015201,0.015338094130682293,-0.005790840094815939
1783338292123085000,3.8040849609375,0.07856967884600162,-0.012969919677637517,-0.015073139034584163
1783338292133057000,3.81405712890625,0.08979308364987373,0.008106482926313765,-0.018496099220588803
1783338292143030300,3.8240302734375,0.09518062190711497,0.0041732282807468435,-0.02025673395125195
1783338292153003300,3.834003173828125,0.08006722392737865,0.003874231634440366,-0.021012301558908073
1783338292162975000,3.84397509765625,0.07557868033647537,0.013848074768634979,-0.016358429604768753
1783338292172948200,3.8539482421875,0.0915934110701084,-0.0006526780553394928,-0.002329940784908831
1783338292182921200,3.863921142578125,0.0736386521846056,-0.0023674780500121412,-0.01527023250926286
1783338292192893000,3.873892822265625,0.0824655172407627,0.015974033397063613,-0.018179891144577413
1783338292202866200,3.8838662109375,0.08441080608963966,0.00913999525909312,-0.013685648465249686
1783338292212838100,3.893838134765625,0.09234393717646598,0.007038947309635114,-0.015700696348398924
1783338292222811000,3.903810791015625,0.081720836353302,0.015321195511519907,-0.006688775315228849
1783338292232784100,3.9137841796875,0.07738193036615848,0.004834920759603846,-0.015203925807401536
1783338292242756000,3.923756103515625,0.08411562253534793,0.004040578344406094,-0.005162424264475703
1783338292252729000,3.93372900390625,0.08725918125808238,0.004449266459862701,-0.016193996290676294
1783338292262702000,3.9437021484375,0.08471709555983543,-0.0020720159345073625,-0.030797307590115813
1783338292272674000,3.953674072265625,0.09788578921258449,0.0123217214345932,-0.019254370241984724
1783338292282647000,3.96364697265625,0.09489362165927887,0.003005871851672418,-0.011596658563055097
1783338292292619000,3.973618896484375,0.08486731768548487,0.0024975387370446698,-0.01040364938620478
1783338292302592000,3.983592041015625,0.08980418956577778,-0.0001180437389644794,-0.010285228904616087
1783338292312565000,3.99356494140625,0.07708674681186675,0.01858770476048812,-0.00902810498299077
1783338292322537200,4.003537109375,0.08187573465406894,0.006051219480496365,-0.012600574908591806
1783338292332510000,4.013510009765625,0.08337386425733566,0.012323162189719732,-0.0020771168013103305
1783338292342483000,4.02348291015625,0.08487374742627143,0.008864329256024211,-0.015418536672461777
1783338292352455200,4.033455078125,0.08906593841910362,0.014061886482674162,-0.013828509268350898
1783338292362428200,4.04342822265625,0.08023731979727744,0.014760337625211103,-0.017721114526409655
1783338292372400000,4.053400146484375,0.07978957602977753,0.003833073073567357,-0.024851276933588087
1783338292382373000,4.063373046875,0.07844459116160869,0.005873999750067014,-0.012811934370640665
1783338292392346000,4.07334619140625,0.09266250160634518,0.004073103790963068,-0.010044022293575107
1783338292402318000,4.083318115234375,0.08353577682077884,0.013567428913060574,-0.005662555806338787
1783338292412291000,4.093291015625,0.0685714319229126,0.008601438252849038,-0.007780479542072862
1783338292422264000,4.10326416015625,0.09341302771270274,0.0013495103462366387,-0.0017349888327531516
1783338292432236300,4.113236328125,0.08712883287668227,0.005370114481693599,-0.009789572608470916
1783338292442209000,4.123208984375,0.08922375932931899,0.0018281607086537404,-0.009797134860418737
1783338292452181000,4.133180908203125,0.07979717481434345,0.010425139698805286,-0.005436090106703341
1783338292462154200,4.143154296875,0.0836906751215458,0.0005530193564365618,-0.018663053285330532
1783338292472127200,4.153127197265625,0.09701134446561335,-0.003276930178282782,-0.0008857698585838079
1783338292482099000,4.163098876953125,0.06708323919177055,0.0006040097581571899,-0.0088355598192662
1783338292492072200,4.173072265625,0.08249708142280578,0.0004546918148058466,-0.025400051656458526
1783338292502045200,4.183045166015625,0.09372107074856757,0.006890675112477038,-0.01907990872422233
1783338292512017000,4.193016845703125,0.08803717989325523,0.000586165857501328,-0.01645266549317166
1783338292521990100,4.202990234375,0.07995733381211757,0.0017858627867535688,-0.022872560739144683
1783338292531962000,4.212962158203125,0.08728957639634609,-0.00042786773996194823,-0.021520324146281928
1783338292541935000,4.22293505859375,0.08010930950343609,0.005473794051876757,-0.01562101870831102
1783338292551908000,4.232908203125,0.08280220184922218,0.0015934980028308927,-0.012193784205988049
1783338292561880000,4.242880126953125,0.094926939406991,0.008327480149676558,-0.014606854963395744
1783338292571853000,4.25285302734375,0.0983732804685831,0.01430380776305683,-0.0014260324814356863
1783338292581826300,4.262826416015625,0.0741308196157217,0.005859532833297271,-0.007742010695207863
1783338292591798000,4.272798095703125,0.07966624191105365,0.017678716139809692,-0.010915142572298645
1783338292601771000,4.28277099609375,0.08460662092268466,0.012535601647291332,-0.006192260502558201
1783338292611743200,4.2927431640625,0.09238543823063373,-0.0031768216715194284,-0.007160685409605502
1783338292621716000,4.302716064453125,0.08580138366520404,0.0011869607452652416,-0.0019362470258958637
1783338292631689000,4.31268896484375,0.08161094623804092,0.008005840130010619,0.0005987330781295896
1783338292641661200,4.3226611328125,0.08804770128726959,0.010374147013796027,-0.01878165643000975
1783338292651634200,4.33263427734375,0.06620178018212318,0.00889510798677802,-0.01425396813880652
1783338292661606100,4.342606201171875,0.08685060045719147,0.015035816398612222,-0.012496657876390963
1783338292671579100,4.3525791015625,0.07772153758406639,0.019049828679789788,-0.01553427200661972
1783338292681552100,4.36255224609375,0.09328560194075107,0.0077841533534810875,-0.021750790167599916
1783338292691524000,4.372524169921875,0.07951894239485263,-0.00965462796705542,-0.004990246035344898
1783338292701497000,4.3824970703125,0.08341010461449623,0.0014835485220653936,-0.007661967728938907
1783338292711470000,4.392469970703125,0.0804179370611906,0.005055742169742006,-0.003156034611817449
1783338292721442000,4.402442138671875,0.08730418944358825,0.009094085174577776,-0.015913370984699575
1783338292731415000,4.4124150390625,0.09120061236023902,0.013436498293059412,-0.02093457841388881
1783338292741387000,4.422386962890625,0.0780342567950487,0.006341007623751648,-0.010267035660799593
1783338292751360300,4.4323603515625,0.07953063283264636,0.008335092633974273,-0.009673161420878023
1783338292761333000,4.4423330078125,0.08821312098205089,0.002242285334342159,-0.006115815999172628
1783338292771305000,4.452304931640625,0.09614683659076691,-0.0022535168311209417,-0.00645242754239589
1783338292781278200,4.4622783203125,0.07594459103941917,0.012760140251321717,-0.001429156020283699
1783338292791251200,4.472251220703125,0.07953297092020511,-0.001757182398252189,-0.015451178566738962
1783338292801223000,4.482222900390625,0.0847708715736866,0.013801904389215632,-0.017223101876396685
1783338292811196200,4.492196044921875,0.08417349020242691,0.007221523635194171,-0.0007254464640282094
1783338292821168000,4.502168212890625,0.08267828320860862,0.009071272837859579,-0.011015095815435052
1783338292831141000,4.51214111328125,0.08956161298155785,0.007590971152228303,-0.010871011169627309
1783338292841114000,4.522114013671875,0.08686930515766143,-0.0004940442943712696,-0.021156915927678346
1783338292851086000,4.532086181640625,0.09569967734515666,-0.008420019554626196,-0.012428469744697213
1783338292861059000,4.54205908203125,0.08806815955340862,0.010146914129180368,-0.0016564437038265167
1783338292871032000,4.552031982421875,0.08986439532041549,0.013338013204513118,0.000020969722792506218
1783338292881004000,4.562004150390625,0.09645020345151424,0.0007810445422073826,-0.014733732746075838
1783338292890977000,4.57197705078125,0.08417933542132378,0.01004439903619932,-0.01611167003577575
1783338292900949000,4.581948974609375,0.08328092527687549,0.014972546470630912,-0.021062077251076696
1783338292910922000,4.591921875,0.07879179716408252,0.01168885775799863,-0.0005644472160376608
1783338292920895000,4.60189501953125,0.09016542409360408,0.00638964623818174,-0.0024874694341793656
1783338292930867200,4.6118671875,0.08343231644630432,0.001753540552884806,-0.012640505060181021
1783338292940840000,4.62183984375,0.07519991015195845,0.007735391441464889,-0.013307901194039731
1783338292950813000,4.63181298828125,0.08926409133970736,-0.003540741346776485,-0.006798501033708453
1783338292960785200,4.64178515625,0.09240531197488308,0.011033505971671548,-0.010145327243581413
1783338292970758100,4.651758056640625,0.08612228618264198,0.005007717759953812,-0.001992160197906196
1783338292980730000,4.661730224609375,0.08432663493752479,0.019885567117878235,-0.022963161632046102
1783338292990703000,4.671703125,0.070109309014678,0.011105984402704052,-0.01045125138759613
1783338293000676000,4.681676025390625,0.08447744158506393,0.0054136408128775656,-0.0007834237289614975
1783338293010648000,4.69164794921875,0.09285948548316955,0.005129638523014728,0.006494476585835218
1783338293020621000,4.70162109375,0.08238543774187565,0.00767180641965242,-0.00979715312672779
1783338293030594000,4.711593994140625,0.07071370464861393,0.006855574116343632,-0.010407795838359742
1783338293040566300,4.721566162109375,0.09271160144507884,0.007841265252023003,-0.00784088622611016
1783338293050539000,4.7315390625,0.08328735501766205,0.01787434374318691,-0.01311933808568865
1783338293060511200,4.74151123046875,0.10035013349950313,0.006617178233608138,-0.005492204208113253
1783338293070484200,4.751484130859375,0.0895768105506897,0.014634243010531645,-0.006510897997673601
1783338293080457200,4.761457275390625,0.0831412245452404,0.015742592411499935,-0.01447754776161164
1783338293090429200,4.77142919921875,0.07999941938817501,0.016898500431375578,-0.009208923176303506
1783338293100401700,4.781401611328125,0.07760463320612906,0.01094976636110805,-0.010582202557194977
1783338293110374700,4.791374755859375,0.0713204383701086,0.00516992486763047,-0.015958799295313655
1783338293120346600,4.8013466796875,0.09406593866348266,0.008645042215846478,-0.008903126896452158
1783338293130319600,4.811319580078125,0.09062778090834617,0.011644621324050239,-0.0038446013978682457
1783338293140291600,4.82129150390625,0.08898352083265781,0.01511991448549088,-0.01770061972765252
1783338293150264600,4.8312646484375,0.08793430404067039,0.012294484084506984,-0.009848353591002524
1783338293160237600,4.841237548828125,0.08928104247450828,0.013635375016159378,-0.0054995107317343354
1783338293170209500,4.85120947265625,0.08943126460015774,-0.004488249046669807,-0.013114734975807368
1783338293180182800,4.861182861328125,0.10095452913343905,0.017384155923314392,-0.009031100657675414
1783338293190154500,4.871154541015625,0.08344868305921554,0.008245617402368224,-0.01404887402076274
1783338293200127500,4.88112744140625,0.08703881650567054,0.013034102921071461,0.002213036406971514
1783338293210100700,4.891100830078125,0.09152911366224288,0.012701820493093692,-0.015397603482287376
1783338293220072400,4.901072509765625,0.09048398852348327,0.004529473822913133,-0.0035034598099999126
1783338293230045400,4.91104541015625,0.09153145174980164,0.0036827002508682195,-0.006790975314378738
1783338293240018700,4.921018798828125,0.08898878152966498,0.012666669264610391,-0.006167107794992625
1783338293249990700,4.93099072265625,0.0921335092961788,0.018537785221135708,-0.0063864131014794105
1783338293259963400,4.94096337890625,0.0771679953545332,0.00599593421285972,-0.005375993949919939
1783338293269935600,4.950935546875,0.08599661397635937,0.0037220664301654324,-0.007184139350429177
1783338293279908600,4.96090869140625,0.08839081563651562,0.0011209874035441316,-0.018099647248908876
1783338293289881600,4.970881591796875,0.0895890855103731,-0.010856251991912721,-0.01521325989132747
1783338293299853600,4.980853515625,0.09931377618908882,0.006109377125231549,-0.005239014898333698
1783338293309826600,4.99082666015625,0.09752046303153038,0.008597495013382285,-0.01563101037936285
1783338293319799600,5.000799560546875,0.08869359797537327,0.006565256250125821,-0.010315861504897475
1783338293329771500,5.010771484375,0.07926876702606678,0.02361102879823884,-0.0018571539076976478
1783338293339744500,5.02074462890625,0.10051789128184319,0.011745195621694437,-0.008262527437973767
1783338293349716700,5.030716796875,0.08196282841563224,0.0022074286500923333,0.0017500585377216338
1783338293359689700,5.040689697265625,0.0903437032699585,0.012296429446421097,-0.014969203736074268
1783338293369662500,5.050662353515625,0.0720873310893774,0.010946832335216459,-0.01260194488177076
1783338293379634700,5.060634765625,0.08719897550344467,0.0014914464174420573,-0.014448467797599732
1783338293389607700,5.070607666015625,0.08794540995657443,0.00877136972596636,-0.011816256130486726
1783338293399579600,5.08057958984375,0.08241057218313216,0.006817539094318635,-0.012662059304863214
1783338293409552600,5.090552734375,0.07777531359791755,0.0030576203052187336,-0.016128420241177083
1783338293419525600,5.100525634765625,0.08032149094939231,-0.0023587216381100004,-0.012898936800658702
1783338293429497600,5.11049755859375,0.07957330293059349,0.0010620899732923135,-0.009304857831448316
1783338293439470600,5.120470703125,0.08092004136443137,0.010623536931292619,-0.018124799956474452
1783338293449443600,5.130443603515625,0.08301379877328872,-0.0036996331193600777,-0.0061891552300192415
1783338293459415600,5.14041552734375,0.08331190493702888,0.004698382382723502,0.0012746047793887555
1783338293469388500,5.150388427734375,0.08031973738372325,0.007692378850223031,-0.01935297177825123
1783338293479360500,5.160360595703125,0.08286416116952895,0.022657454400451388,-0.01275222180634737
1783338293489333500,5.17033349609375,0.0854068313896656,0.017467790502600836,0.0021724669345654546
1783338293499306800,5.180306640625,0.08854922106862068,0.010510603192285634,-0.0044277898469939824
1783338293509278500,5.190278564453125,0.08929974717497825,-0.00529287082728697,-0.014529698073957115
1783338293519251700,5.200251708984375,0.09004851971566677,-0.006821722079091705,-0.01600587157374248
1783338293529224700,5.210224609375,0.0876549025774002,-0.005161515515600331,-0.0031032632449641824
1783338293539196400,5.220196533203125,0.08795476230680942,-0.005754665953025687,-0.00443310534292832
1783338293549169700,5.230169677734375,0.08316811255216598,0.006343868584407027,-0.016639548101089894
1783338293559141600,5.2401416015625,0.0830190594702959,-0.0019184693406103178,-0.0022528752270154656
1783338293569114600,5.250114501953125,0.08616320271492003,-0.0009621161805582233,-0.009085388128180057
1783338293579087600,5.260087646484375,0.08137596843838692,0.0029694693810190073,-0.010401987152080983
1783338293589059600,5.2700595703125,0.07629004347622394,0.006117482799873687,-0.007044109825231134
1783338293599032600,5.280032470703125,0.0885609115064144,0.009286331227491609,-0.0119548060846515
1783338293609005600,5.290005615234375,0.08706453546881675,0.008104300102381966,-0.013607267733104526
1783338293618977500,5.2999775390625,0.08362228606045245,0.009852847103029489,-0.0015019837944768369
1783338293628950500,5.309950439453125,0.08676409121751785,0.016140446322399655,-0.007508110607787966
1783338293638922800,5.3199228515625,0.0837684165328741,-0.0005916115008876659,-0.01239820247059688
1783338293648895500,5.3298955078125,0.09259469706714153,0.007720045458571985,-0.01696848779451102
1783338293658868500,5.339868408203125,0.08870236580371856,0.012109610770584549,-0.0066936158871278165
1783338293668840700,5.3498408203125,0.09528875845670699,0.007445331586862448,-0.014986483664438128
1783338293678813700,5.359813720703125,0.08720832785367966,0.0005017800762550905,-0.015276881445758044
1783338293688785700,5.36978564453125,0.08466273502409458,0.01667404630902456,0.01593547321865335
1783338293698758700,5.379758544921875,0.080322075471282,0.01359775783595396,-0.008049524008110166
1783338293708731600,5.389731689453125,0.09438625665903091,-0.010106196243013255,-0.0106562724404037
1783338293718703600,5.39970361328125,0.10126958643198013,-0.020270337784918956,-0.023530348794441668
1783338293728676600,5.409676513671875,0.07223930678069591,-0.008870201874384656,-0.010074892355874181
1783338293738649600,5.419649658203125,0.09154431123137474,0.006025400052650366,-0.009855148657970129
1783338293748621800,5.429621826171875,0.09274082753956317,0.01005085389316082,-0.00568235648535192
1783338293758594600,5.439594482421875,0.08765548709928989,0.005693005743529648,-0.0035200638849288224
1783338293768566500,5.44956640625,0.08196750459074974,0.006945012815331574,0.0010663323235698043
1783338293778539800,5.459539794921875,0.08585925133228302,0.021503496309067123,-0.018957378323096782
1783338293788512800,5.4695126953125,0.09379121337532996,0.0005605176763026975,0.001585533892083913
1783338293798484500,5.479484375,0.06775368579924106,-0.0012965563162928447,-0.012521901915501803
1783338293808457700,5.489457763671875,0.0843611217290163,0.01293665672885254,-0.0046569041614420706
1783338293818429700,5.4994296875,0.08855097463428974,-0.00678643613657914,0.00011474895346909761
1783338293828402400,5.50940234375,0.09349076912403106,0.0164462928346009,0.0027267215501517055
1783338293838375700,5.519375732421875,0.09289572584033012,0.0013992723386734723,0.007769337093550712
1783338293848347600,5.52934765625,0.08631167127490043,-0.0001897823844803497,-0.011828275361843407
1783338293858320600,5.539320556640625,0.08436755146980285,0.030969611400121354,-0.024673125621397046
1783338293868293600,5.549293701171875,0.10067863480150699,0.0022131323050940408,-0.012835351778846234
1783338293878265600,5.559265625,0.09813771814703941,0.004772292435728014,-0.006729710113815963
1783338293888238600,5.569238525390625,0.09484744442999363,0.015707719744229687,-0.00399571857266128
1783338293898210600,5.57921044921875,0.08916355357468128,-0.0030859467839822173,-0.010055256073642521
1783338293908183600,5.58918359375,0.10951485220789908,0.004377879440796095,-0.0025192893445491788
1783338293918156500,5.599156494140625,0.0788403124809265,0.0035433237462188117,-0.004120623593963682
1783338293928128500,5.60912841796875,0.09485270512700081,0.005077554426039569,-0.025931619516201317
1783338293938101500,5.6191015625,0.0921603973031044,0.011911599413875956,-0.009132387341372668
1783338293948074500,5.629074462890625,0.09156184688806533,0.00775589309008792,0.005846515804808586
1783338293958046700,5.639046630859375,0.09246025703251361,-0.008900772825872991,-0.00656922232247889
1783338293968019500,5.64901953125,0.08243512210249901,0.010354042657394893,-0.0050805729336105285
1783338293977991700,5.65899169921875,0.08902034571170807,0.008401906225911807,-0.01954509681686759
1783338293987964700,5.668964599609375,0.06627601446211338,0.009281828582310117,-0.004712068414781242
1783338293997937700,5.678937744140625,0.09037000675499439,0.005310248937061987,-0.012709716105181724
1783338294007909600,5.68890966796875,0.08917465949058533,-0.004104263830918353,-0.007425857418123632
1783338294017882600,5.698882568359375,0.09441022205650806,0.0070996097219991495,-0.010316592157259583
1783338294027854600,5.7088544921875,0.08572890295088291,0.005235560282634106,0.004861541621759533
1783338294037827600,5.71882763671875,0.08587678698897361,0.01715755322636105,-0.01343792078187689
1783338294047800600,5.728800537109375,0.0899164177685976,0.010003742798825259,-0.003565455662924796
1783338294057772500,5.7387724609375,0.09066460578739642,0.010202560156420805,-0.013731825694534927
1783338294067745800,5.748745849609375,0.08048866420984267,0.0025478921012370846,-0.020194153576437383
1783338294077718500,5.758718505859375,0.0935065512150526,0.007458088320447131,0.0013472316241823136
1783338294087690500,5.7686904296875,0.07136018585860729,0.010927899305883329,-0.006744012633804231
1783338294097664000,5.7786640625,0.09365794238448143,0.009743742439057677,-0.005630114841461181
1783338294107636000,5.788635986328125,0.09620295069217681,0.006439709624717943,-0.01725026387795806
1783338294117609000,5.79860888671875,0.07570552158653736,0.0030625955911469643,-0.011602430716715753
1783338294127582000,5.80858203125,0.0822913297176361,-0.005045138577336911,-0.006008556232415139
1783338294137554000,5.818553955078125,0.08812778078615664,0.01268971449676901,-0.011508998545911163
1783338294147527000,5.82852685546875,0.07585866632163524,0.01299647660771152,-0.011627345962263643
1783338294157499100,5.8384990234375,0.07211772622764111,0.007315147602243814,-0.005638663474097847
1783338294167471900,5.848471923828125,0.07810147681236267,-0.003808137278421782,-0.011223916260525584
1783338294177444900,5.85844482421875,0.08603226981163024,0.006980481420934666,-0.0012065262455493212
1783338294187417000,5.8684169921875,0.08872516215741634,0.016153725929080973,-0.010210337037499993
1783338294197390000,5.87839013671875,0.0791501090824604,-0.0050425470447400585,0.0015116284056566655
1783338294207362800,5.88836279296875,0.08588263220787049,0.0018470343724824488,0.006107687491644174
1783338294217335000,5.8983349609375,0.0959071826159954,0.006433948887500446,-0.012031889908853918
1783338294227308000,5.90830810546875,0.07720189762413501,-0.004045759126311168,-0.0030774712165817617
1783338294237280000,5.918280029296875,0.07271218498945235,0.021252421324560417,-0.011322755258809774
1783338294247253000,5.9282529296875,0.0927612858057022,-0.0026953331813332625,-0.016643073498737067
1783338294257226000,5.93822607421875,0.09724982939660548,0.002217938627663534,-0.002749335240758955
1783338294267198200,5.9481982421875,0.09350830478072165,0.008871980556228664,-0.0030542730040848255
1783338294277171000,5.9581708984375,0.08437748834192753,0.001985079719859641,-0.006000939181540161
1783338294287143000,5.968142822265625,0.08946692043542862,0.010078780796413774,-0.002053133137524128
1783338294297116200,5.9781162109375,0.08722410994470119,0.003639397681970149,-0.002726758082769811
1783338294307089200,5.988089111328125,0.08527823657393455,0.0212505261949962,-0.010521722807921468
1783338294317060900,5.998060791015625,0.08079027750492096,0.01825297693038592,-0.004499320713244379
1783338294327034000,6.0080341796875,0.08363514554202556,-0.003387934538396075,-0.013733049537241459
1783338294337007000,6.018007080078125,0.09515957911908626,0.011189139491377863,-0.0007886661596596241
1783338294346978800,6.027978759765625,0.09530687863528728,0.017003753187425898,-0.02016005037743598
1783338294356952000,6.0379521484375,0.07555471493899822,0.013914411153248511,-0.0032589652633294463
1783338294366924000,6.047924072265625,0.08468202424645424,0.011830967359140049,0.0022612594628706574
1783338294376896800,6.057896728515625,0.08318681725263595,-0.004278104294172954,-0.007296933808829635
1783338294386870000,6.0678701171875,0.08588380125164985,0.008495393195643556,-0.004489493438974023
1783338294396842000,6.077842041015625,0.07690729859173298,0.006866543034929781,-0.009649890143144876
1783338294406815000,6.08781494140625,0.08768179058432579,-0.0007364564818097278,-0.014432649173960088
1783338294416787000,6.097786865234375,0.09471709604859352,0.008232856102206278,-0.013151888648420571
1783338294426760000,6.107760009765625,0.08185235377848148,0.004826577622944023,-0.016753493336960672
1783338294436733000,6.11773291015625,0.09053191931843757,0.0015644271719735116,0.0037716640258207913
1783338294446705000,6.127704833984375,0.0873889451175928,0.005688740560365841,-0.015545469254069029
1783338294456678000,6.137677978515625,0.0894844560921192,-0.009367118545854463,-0.002366071544215083
1783338294466651000,6.14765087890625,0.09203063344359397,0.006166447924578097,-0.008422558571584523
1783338294476623000,6.157623046875,0.08245499584674834,0.006314576274552382,-0.007023651559092104
1783338294486595800,6.167595947265625,0.07796645225584506,-0.0070124976941267955,-0.005954232229292393
1783338294496568000,6.177568115234375,0.09757073191404342,0.007772816825425252,-0.011873082617949693
1783338294506541000,6.187541015625,0.09951718980669974,0.008122317532973829,-0.010338146401941776
1783338294516514000,6.19751416015625,0.08665010944902897,0.006404848373890854,-0.011308507537748664
1783338294526486000,6.207486083984375,0.081114687153697,0.014455192082619759,-0.001830320699699223
1783338294536459000,6.217458984375,0.09188917914628981,0.008454006305907386,-0.0056948689070530235
1783338294546431000,6.227430908203125,0.09607903205156326,0.0015082582716364412,-0.015146533064357936
1783338294556404000,6.237404052734375,0.09233809195756912,0.007293314796348567,-0.008550039142463356
1783338294566377000,6.247376953125,0.09009586598873139,0.006908911738777532,-0.012212233178131282
1783338294576349000,6.257348876953125,0.09264087429642677,0.002314076495496556,-0.006947992506995797
1783338294586322200,6.267322265625,0.08740180459916591,-0.0013495605785865336,-0.009981916842795908
1783338294596295000,6.277294921875,0.0878513019323349,0.007705411861732136,-0.005169274130370468
1783338294606267000,6.287266845703125,0.08276479244828223,0.01397026267646579,0.0007117101996205747
1783338294616240000,6.297240234375,0.09877660057246684,0.012145268889144063,-0.014972674334794283
1783338294626211800,6.3072119140625,0.09398878177404403,0.0020748266628128477,-0.013314513597916812
1783338294636184800,6.317184814453125,0.09054711688756942,0.0008966565787792205,-0.008811649220716207
1783338294646158000,6.327157958984375,0.0772287856310606,0.010978366834507322,-0.010348430333938449
1783338294656130000,6.337130126953125,0.07573240959346295,0.009507255385618191,-0.0016608093516901135
1783338294666102800,6.347102783203125,0.0975806687861681,0.012864927216491195,-0.012538469457812607
1783338294676075000,6.357074951171875,0.06256663855016231,0.0012467943238560109,-0.009216138368379324
1783338294686048000,6.367048095703125,0.08486205698847771,0.011273632587189785,-0.0021934914562851187
1783338294696021000,6.37702099609375,0.08531330788731574,0.012621473849436734,-0.0003165916685014963
1783338294705993000,6.386992919921875,0.0742395406872034,0.0032556704778340644,-0.004991798671614378
1783338294715966000,6.396966064453125,0.10296879156529903,0.004262954674102365,0.0115804746132344
1783338294725938200,6.406938232421875,0.09414134198725223,0.006627916540042497,-0.004833502837363631
1783338294735911000,6.416910888671875,0.09937807359695434,-0.006393651126441546,-0.013678615936264396
1783338294745884000,6.4268837890625,0.0893541077107191,0.013386441756389103,-0.01077164244838059
1783338294755856100,6.436856201171875,0.07977847011387347,0.003707074357010424,-0.01119870875403285
1783338294765829000,6.4468291015625,0.08576631235182285,0.011466465445281937,-0.011266769021563231
1783338294775801900,6.4568017578125,0.07574000837802887,0.006656494180555455,0.015050854137539862
1783338294785774000,6.466774169921875,0.0854682061880827,0.01799822356789373,-0.007471559723373502
1783338294795747000,6.4767470703125,0.09204992266595363,0.012261748575395904,0.0026386231415905055
1783338294805718800,6.48671875,0.0945914238423109,-0.0037309141736128365,-0.014494973820447921
1783338294815692000,6.496692138671875,0.08726093482375144,0.019070544957544188,-0.00021219971226528285
1783338294825665000,6.5066650390625,0.08097615546584129,0.007243890730629209,-0.009771762957144528
1783338294835637000,6.516636962890625,0.08486848672926425,0.005379681461059954,-0.013615469305869191
1783338294845610000,6.52660986328125,0.08786357689201832,0.006409885308612137,-0.010391191763430833
1783338294855582000,6.53658203125,0.09609481414258479,0.012767001533659639,-0.002268602519109845
1783338294865555000,6.546554931640625,0.0761912592768669,-0.002601958092744462,-0.0068250054481439285
1783338294875528000,6.55652783203125,0.08023030553460121,0.0009067852471489459,-0.0022180231093429027
1783338294885500000,6.5665,0.078287354773283,0.017529240649542772,-0.001236756987031549
1783338294895473000,6.576472900390625,0.08995791882276534,-0.001365322120010387,-0.002756751362234354
1783338294905446100,6.586446044921875,0.08187690369784832,0.0010604208893026225,-0.015653240477479992
1783338294915417900,6.59641796875,0.09250292713046074,0.00885665055635618,-0.0022877456109970805
1783338294925390800,6.606390869140625,0.09400047221183776,0.0021055072121554984,-0.01195392930181697
1783338294935363000,6.616363037109375,0.07798866408765316,0.0009651346881291828,-0.003163925657328218
1783338294945335800,6.626335693359375,0.09998714540600775,0.003760489611257799,0.0021475151563994585
1783338294955308800,6.636308837890625,0.08921616054475306,0.0014724631557590327,-0.006272961055953055
1783338294965281000,6.646281005859375,0.0776946495771408,-0.0007884857798577285,-0.0035513358060270546
1783338294975254000,6.65625390625,0.0868231279283762,0.0073714420834556215,-0.008628018015809357
1783338294985226000,6.66622607421875,0.08577449565827847,0.010339192148135043,-0.007171225069928914
1783338294995199000,6.676198974609375,0.07604629784822464,0.0037326106570661067,0.01384600839242339
1783338295005172000,6.686171875,0.0892149915009737,-0.006162201007723342,-0.009179094293620437
1783338295015144000,6.69614404296875,0.0821826086461544,0.0024524757526116444,-0.004358414405211806
1783338295025117000,6.706116943359375,0.08786883758902549,0.012407595920027234,0.002654441765230149
1783338295035089000,6.7160888671875,0.08562310448884963,0.010378925936901942,0.0018578662937507031
1783338295045062100,6.726062255859375,0.09041559946238995,0.010566322284762281,0.003955770154763013
1783338295055035000,6.736034912109375,0.08218611577749252,0.005730481359839904,-0.011284870933834464
1783338295065006800,6.7460068359375,0.07006430082917213,0.004537625163327902,0.0007987308959476649
1783338295074980000,6.75597998046875,0.08263385954499244,0.005804937118827365,-0.004903608931507915
1783338295084953000,6.765953125,0.10118892241120338,0.01955323445755057,-0.014472433195076882
1783338295094924500,6.775924560546875,0.08517886785268783,0.002506322548410389,-0.005769121453352272
1783338295104897500,6.7858974609375,0.08816986636221408,0.005007788541901391,0.0037523565371520816
1783338295114869200,6.795869140625,0.08847031061351299,0.009611391613527667,-0.013998659937176852
1783338295124842500,6.805842529296875,0.0922124197512865,0.0013636142201139591,-0.007071582354046404
1783338295134815500,6.8158154296875,0.08652911341786385,0.0015426468817167915,-0.000982362100854516
1783338295144787500,6.825787353515625,0.0889227305561304,0.0022145593604887834,-0.010868344288505614
1783338295154760400,6.835760498046875,0.08488076168894768,-0.001149569610634353,-0.004525295404717326
1783338295164732400,6.845732421875,0.0829366418838501,-0.0015242823912529275,0.005843666260596365
1783338295174705400,6.855705322265625,0.08428513388335704,0.0010955150355701335,-0.015192399766389279
1783338295184678700,6.8656787109375,0.09371347196400165,0.019600754260551183,-0.009744217363093048
1783338295194650400,6.875650390625,0.07141688448190689,0.0016559596466366202,-0.011712960152793675
1783338295204623400,6.885623291015625,0.09745265849232673,0.003023978330520913,-0.014306538576260209
1783338295214596600,6.8955966796875,0.09236907161772251,0.019146793098107445,-0.005022230342496186
1783338295224568300,6.905568359375,0.07336684950590133,0.003110473870462738,-0.011253946072608231
1783338295234541300,6.915541259765625,0.08099836729764938,-0.0025822487452765927,0.003550258093792945
1783338295244513500,6.925513427734375,0.09057692750394344,0.00556557768828934,-0.0013132562893442808
1783338295254486500,6.935486572265625,0.08070259922146797,-0.00023061443507904186,0.007275452629383653
1783338295264459300,6.945459228515625,0.07935410722196101,-0.003379363072873093,-0.005516845459025353
1783338295274431500,6.955431396484375,0.08459317691922187,-0.0023072083632927386,-0.0014161321419291198
1783338295284404500,6.965404541015625,0.09072890319526195,0.01559956721161725,-0.002587386144697666
1783338295294376400,6.97537646484375,0.09626315644681453,0.002055117315344978,-0.007896342740394175
1783338295304349400,6.985349365234375,0.08339256895780563,0.008729032988159451,-0.014262790766078977
1783338295314322400,6.995322509765625,0.08877835364937782,0.006296871654503047,-0.009210311415791511
1783338295324294700,7.005294677734375,0.09072013536691666,-0.008530411993386224,-0.005289064585138112
1783338295334267400,7.015267333984375,0.0902694689899683,-0.0011708407275262287,-0.005021901548933238
1783338295344240400,7.025240478515625,0.08802607397735118,0.01326827928641578,-0.008562770759873092
1783338295354212600,7.035212646484375,0.0757557904690504,0.01509928497270448,-0.007517481224332005
1783338295364185600,7.045185546875,0.08996960926055908,-0.00025938615512568504,-0.009831767782382667
1783338295374157300,7.0551572265625,0.09206395119130611,0.008480930845451075,-0.01002743648495525
1783338295384130600,7.065130615234375,0.08278700428009032,-0.0023502209545345977,0.0006202142575755714
1783338295394103600,7.075103515625,0.07021744556427001,0.0035559822983923365,-0.0070340998878702515
1783338295404075300,7.0850751953125,0.08937047432363032,0.005696307378890924,-0.01663585830666125
1783338295414048500,7.095048583984375,0.08548223471343516,-0.00043670863354345783,-0.0032333010991103944
1783338295424020500,7.1050205078125,0.093410689625144,0.01051952628425788,-0.012722612119372933
1783338295433993500,7.114993408203125,0.08398118250072002,0.006769870877556968,-0.001874579966533929
1783338295443966500,7.124966552734375,0.08083762377798556,0.017949788166151847,0.0006304981895722449
1783338295453938400,7.1349384765625,0.07754384292960166,0.013524658350413664,0.0005806676984764635
1783338295463911400,7.144911376953125,0.0920557678848505,-0.009735312537429854,-0.005801270157285035
1783338295473884700,7.154884765625,0.08382979133129119,0.002210253078129608,-0.00341176293855533
1783338295483856400,7.1648564453125,0.10119009145498276,0.003988971454754937,-0.01440422679707408
1783338295493829400,7.174829345703125,0.08158639631867408,0.012153335747879463,0.003358169587794691
1783338295503801600,7.184801513671875,0.0965478186070919,0.012598369251773692,-0.012445767939370125
1783338295513774300,7.1947744140625,0.08682371245026588,0.018124692641908767,-0.0047188817480579015
1783338295523747300,7.204747314453125,0.08577391113638877,-0.005558618224540259,0.0014902202914468944
1783338295533719600,7.214719482421875,0.08233166172802447,0.008631123288348317,-0.010205441666673868
1783338295543692500,7.224692626953125,0.09639876552522182,0.02303189090314554,0.0039009712276048955
1783338295553664500,7.23466455078125,0.0893669671922922,0.0036492432225495573,-0.010724040446989238
1783338295563637500,7.244637451171875,0.08921674506664276,0.009343294712272472,-0.0034106669600121675
1783338295573610500,7.254610595703125,0.0911579422622919,0.014069174739986192,-0.016566702060587704
1783338295583582500,7.26458251953125,0.08517243811190128,0.004110789469827432,-0.0071239153294824055
1783338295593555500,7.274555419921875,0.08996084143221378,0.002358009252056945,0.004994812612608075
1783338295603527400,7.28452734375,0.09430150098502635,0.007172407813440077,-0.007698829140607267
1783338295613500400,7.29450048828125,0.08906535389721393,0.005840220778051298,-0.021414324754849074
1783338295623473400,7.304473388671875,0.08442483461499213,-0.004949149123264942,-0.007113010342977941
1783338295633445400,7.3144453125,0.08577391113638877,0.013330434969544875,-0.012424524221941829
1783338295643418600,7.324418701171875,0.08443009531199931,0.01997337326549459,-0.005598148800618946
1783338295653391400,7.334391357421875,0.09176058433055877,0.002435282589215785,-0.003991681718360633
1783338295663363600,7.344363525390625,0.0977455039590597,0.019238330139347816,-0.004628372186701745
1783338295673336600,7.354336669921875,0.09939268664419651,-0.004877581724396441,-0.01775267870845273
1783338295683308300,7.364308349609375,0.08428104223012924,0.0015441698352340607,0.006402560518682003
1783338295693281500,7.374281494140625,0.08936521362662316,0.0014088690007920375,-0.00030026158820837737
1783338295703254500,7.384254638671875,0.09100947370231151,-0.008703903113480191,-0.0018750183579511939
1783338295713226500,7.3942265625,0.0901128171235323,0.0050217462853062896,-0.0016707827564328907
1783338295723199500,7.404199462890625,0.08682078984081745,-0.0008853565833414905,-0.00719246878735721
1783338295733171500,7.41417138671875,0.08786649950146674,-0.00005309787712758407,-0.003511332589201629
1783338295743144400,7.42414453125,0.10073299533724785,0.0014985634281067177,-0.000008347703237086534
1783338295753117400,7.434117431640625,0.08053484143912791,0.0018044122235965914,-0.0033538039399310946
1783338295763089400,7.44408935546875,0.08457388769686222,0.018404902389354535,0.00019006094569340348
1783338295773062400,7.4540625,0.08576865043938159,0.005404729137348477,-0.010806220571417361
1783338295783035400,7.464035400390625,0.07678922517001628,-0.005366799146600533,-0.006356584218796342
1783338295793007400,7.47400732421875,0.08382219254672527,0.0022756761472905052,-0.01384357897331938
1783338295802980400,7.48398046875,0.09309972397983074,0.006703472844150383,-0.014454148619715123
1783338295812952600,7.49395263671875,0.07858429189324379,0.02386432998916134,-0.008328870672453194
1783338295822925600,7.503925537109375,0.07648936544060707,0.01379031213283306,-0.009699026514496653
1783338295832898300,7.513898193359375,0.07978080820143223,0.003877403122349642,-0.009855842777714133
1783338295842870500,7.52387060546875,0.09175006293654442,0.0032401874976232645,-0.0006298954013735055
1783338295852843500,7.533843505859375,0.09204758457839489,0.007248516673396807,0.0015460055992938576
1783338295862815500,7.5438154296875,0.09040273998081684,0.010169936528452671,-0.005599445708561688
1783338295872788500,7.55378857421875,0.09144903416335583,0.015249824475473723,0.0031925672299228606
1783338295882761500,7.563761474609375,0.09893032982945442,0.01780818773837527,-0.011351999619603157
1783338295892733700,7.573733642578125,0.07917758161127567,0.017913483876909594,-0.012114435359463094
1783338295902706400,7.58370654296875,0.09069909257888793,0.0011841682832688092,-0.01543974385727197
1783338295912678400,7.593678466796875,0.08800444666743278,0.01554680497791851,-0.0057364430264569815
1783338295922651600,7.603651611328125,0.09683423433303832,0.012666920426359866,0.00056126887826249
1783338295932624600,7.613624755859375,0.08217150273025035,0.003614050894870888,0.001216901509091258
1783338295942596400,7.623596435546875,0.08112403950393199,0.017977009533217642,-0.0035626974502578376
1783338295952569600,7.633569580078125,0.0793289727807045,0.016694152948714326,-0.004440631062258035
1783338295962542600,7.64354248046875,0.08770926311314106,0.014562593413272406,-0.016082644870691002
1783338295972514300,7.653514404296875,0.08920563915073872,0.009147352015064097,-0.0070929722019471226
1783338295982487600,7.663487548828125,0.08172434348464011,0.003206383409432601,0.0005544190123677253
1783338295992459500,7.67345947265625,0.08082651786208152,0.0035373415300040505,-0.0072208546316251156
1783338296002432500,7.6834326171875,0.08576338974237442,0.008932277642411645,-0.008308467205241322
1783338296012405500,7.693405517578125,0.08860358160436153,0.0011089293562807142,-0.019473383287526666
1783338296022377500,7.70337744140625,0.09414075746536255,0.00931219632111024,-0.005398132716491818
1783338296032350500,7.7133505859375,0.07349135266840458,0.005704344554874115,-0.002222717550769448
1783338296042322400,7.723322509765625,0.0920470000565052,0.010571306703845039,-0.005202007356192916
1783338296052295400,7.73329541015625,0.08456745795607566,0.004712828749895561,-0.006935754079930484
1783338296062268400,7.743268310546875,0.08666238440871238,0.008012402301537803,-0.008582534906268119
1783338296072240600,7.75324072265625,0.08336860356032848,-0.0014530392193701116,-0.0028081162232905625
1783338296082213400,7.76321337890625,0.07319441554844379,0.006188166566041763,0.003967405793629587
1783338296092185600,7.773185546875,0.09728782331943511,0.0054881399543490255,-0.0012161160578019917
1783338296102158600,7.78315869140625,0.08501812433302403,0.0076880132023594335,-0.0017891119064763188
1783338296112131600,7.793131591796875,0.09145195677280425,0.0049040313399047585,-0.0055489758966490626
1783338296122103800,7.803103759765625,0.08442074296176433,0.008794926414778456,-0.0065441792127676306
1783338296132076800,7.813076904296875,0.08621405611932277,0.007578931371273938,-0.011707882118877022
1783338296142049500,7.823049560546875,0.07768237461745739,0.002496415359037928,-0.000116648649610579
1783338296152021800,7.833021728515625,0.08277414479851722,-0.0008351813156623393,-0.006262019536830484
1783338296161994800,7.842994873046875,0.08696049057245255,0.002520962995116133,-0.005181110698636621
1783338296171966500,7.852966552734375,0.084714172950387,0.005788983781158458,-0.0050821073035709555
1783338296181939700,7.862939697265625,0.10506313349604605,0.003508133701828774,-0.012921386094484478
1783338296191912700,7.87291259765625,0.08426175300776959,0.009377160449256189,-0.012536880288925021
1783338296201884700,7.882884765625,0.0695955142736435,-0.0030720141567522658,-0.004508070275280624
1783338296211857700,7.892857666015625,0.08830196830928325,-0.0017240199141670017,0.0091697236770764
1783338296221829600,7.90282958984375,0.08201777347326278,0.012316725599067284,-0.015794749573711304
1783338296231802600,7.912802734375,0.08725508960485458,0.010026970694074407,-0.0009974318058229982
1783338296241775900,7.92277587890625,0.09204232388138771,0.005675061378173995,-0.0011839673538692295
1783338296251747600,7.93274755859375,0.09249299025833606,0.0013356370845111086,-0.0026278460192494094
1783338296261720600,7.942720458984375,0.07782733604609966,-0.00010902703215833753,-0.011192881801445037
1783338296271692800,7.95269287109375,0.08141980758011341,-0.0025641673826030456,-0.00037944603795185685
1783338296281665500,7.96266552734375,0.09294073402583598,0.0033819203561404718,-0.003697996001411229
1783338296291638500,7.972638427734375,0.0863560949385166,-0.0027957225325983014,0.0010617840126156807
1783338296301610800,7.98261083984375,0.07812719577550888,-0.002770711388927884,0.00005923764025792479
1783338296311583700,7.992583740234375,0.09922843599319457,-0.003965978738234844,-0.0034629451365210113
1783338296321556500,8.002556396484374,0.09204816910028457,0.008098534798587206,-0.0077127115354873235
1783338296331528700,8.01252880859375,0.07109948909580707,-0.0032861706473748197,-0.0057430736966431134
1783338296341501700,8.022501708984375,0.0941425110310316,0.0022175915677915326,-0.002036346399504691
1783338296351473700,8.0324736328125,0.09563947159051894,0.011949319342069793,-0.014425214786175637
1783338296361446700,8.04244677734375,0.08995499621331692,-0.00436051959733013,0.004491959390696138
1783338296371419600,8.052419677734376,0.07933189539015292,0.0006684099140111357,-0.0036882965913042423
1783338296381391600,8.0623916015625,0.084870824816823,0.01137346709931735,-0.015284717692341654
1783338296391364600,8.072364501953125,0.07768938888013363,0.00089172467533499,-0.0011618103209882975
1783338296401336600,8.082336669921874,0.09280044877231121,0.009919587629730813,-0.012331073784828185
1783338296411309800,8.092309814453126,0.0841214677542448,0.014077033819456118,-0.010838862465694547
1783338296421282600,8.102282470703125,0.09669102647006511,0.0028680959323537534,0.00008842720212414861
1783338296431254500,8.112254638671875,0.07858429189324379,-0.004569072897650767,-0.0035211598634719847
1783338296441227800,8.122227783203124,0.0769365246862173,0.012011415659694467,0.00719347343435511
1783338296451200800,8.13220068359375,0.08965572100579738,0.012650364300492219,-0.017205986344814298
1783338296461172500,8.14217236328125,0.0760386990636587,-0.007520296519214753,-0.01167964240508154
1783338296471145700,8.152145751953125,0.07933189539015292,0.009272855257987975,-0.013875983405578881
1783338296481117700,8.16211767578125,0.09459668453931808,0.014216590703907421,-0.014274736932199448
1783338296491090400,8.17209033203125,0.08501578624546527,0.0075656677476130425,-0.012923724182043224
1783338296501063700,8.182063720703125,0.07064823819696903,0.00525465999203734,-0.0005810330246575177
1783338296511035600,8.19203564453125,0.09593757775425911,0.008222688617929816,-0.02629983177408576
1783338296521008600,8.202008544921876,0.08471300390660762,0.007305445908848196,-0.003451090301945805
1783338296530980600,8.211980712890625,0.08201835799515247,0.0028204003161285073,-0.011430142889730632
1783338296540953600,8.22195361328125,0.09249415930211544,-0.001465120099519845,-0.009009089755266904
1783338296550926600,8.231926513671874,0.07932605017125606,0.009807494140940252,-0.01901853392580524
1783338296560898600,8.241898681640626,0.07947510325312614,-0.0020403375880327073,-0.005267948731873184
1783338296570871600,8.25187158203125,0.0805219819575548,0.0033120836900547143,0.0005493775110691785
1783338296580843800,8.26184375,0.09309504780471324,0.016067954191635363,-0.009794723707623779
1783338296590816800,8.271816650390624,0.07768412818312645,-0.0008811850150115787,0.0020599464708007872
1783338296600789500,8.28178955078125,0.08381926993727684,0.013443386974860914,0.002678096635453403
1783338296610761700,8.29176171875,0.09205284527540207,0.01952458146851277,-0.0033295280152000487
1783338296620734700,8.301734619140625,0.10147884526848792,0.004990718676091637,-0.017441384269576518
1783338296630707700,8.311707763671874,0.08038111218214035,-0.0037774316129041835,0.0071305825322866435
1783338296640679700,8.3216796875,0.0845744722187519,0.004971682898770086,-0.009193232416827232
1783338296650652700,8.331652587890625,0.08277765192985534,0.0063315228427760295,-0.005197678240947425
1783338296660624600,8.341624755859375,0.08472469434440136,0.01054182259774534,0.006829572025407105
1783338296670597600,8.35159765625,0.08547346688508987,0.011433282411599065,-0.006460446452070027
1783338296680570600,8.361570556640626,0.09998831444978713,-0.0030723863327992147,-0.00166828027209267
1783338296690542600,8.37154248046875,0.09385141912996768,0.0040771041126456105,0.015922960796952247
1783338296700515800,8.381515869140625,0.08203063295483588,0.002868595972564071,0.003381166870892048
1783338296710487600,8.391487548828126,0.09055939184725284,-0.000014234021329320966,-0.017130656086280942
1783338296720460500,8.40146044921875,0.08621756325066089,0.005866117837710771,-0.0049558688417077066
1783338296730433800,8.411433837890625,0.0823264010310173,0.010183197868824935,-0.0066108695071190595
1783338296740405500,8.421405517578124,0.09310264658927916,-0.001091270402004011,-0.01087371458336711
1783338296750378500,8.43137841796875,0.09100830465853214,-0.004404018529050518,-0.013084248505998403
1783338296760350700,8.441350830078125,0.08412263679802418,0.002718704923766199,-0.01364259477481246
1783338296770323700,8.45132373046875,0.08831132065951823,0.0038012805626611223,-0.00680469331247732
1783338296780296400,8.46129638671875,0.08112696211338043,0.005291720049816649,0.0018114881350658834
1783338296790268700,8.4712685546875,0.0818733965665102,0.007195733890100382,-0.0073600987055338915
1783338296800241700,8.48124169921875,0.0892062236726284,0.005071227433241438,-0.011984872429352252
1783338296810213600,8.491213623046875,0.09324702349603176,-0.003459081812156364,-0.008656677854713052
1783338296820186600,8.5011865234375,0.08786065428256988,-0.00044408593911211933,-0.003712097591999918
1783338296830159600,8.51115966796875,0.0805313343077898,0.006319887203909457,0.0008789199926890432
1783338296840131600,8.521131591796875,0.0833762023448944,0.006928061680530663,-0.013429518279712647
1783338296850104600,8.5311044921875,0.07948211751580238,0.009349075999087653,-0.004280015406757593
1783338296860077600,8.54107763671875,0.0872632729113102,0.0064358759831055065,-0.019258534960448742
1783338296870049800,8.5510498046875,0.09115618869662284,-0.0005361549866036512,-0.002110105755459517
1783338296880022500,8.5610224609375,0.08382219254672527,0.0015546843793825245,-0.002320698032528162
1783338296889994500,8.570994384765624,0.09130056560337543,-0.0020052708412287754,0.00008199746133759617
1783338296899967700,8.5809677734375,0.08307225096225739,0.0065319796016090545,-0.011064743643440306
1783338296909940700,8.590940673828126,0.08412088323235511,-0.0054920831938157786,-0.007438205443043262
1783338296919912700,8.60091259765625,0.07125088026523589,0.001680402251437772,0.006741564948391169
1783338296929885700,8.6108857421875,0.09070318423211574,-0.0008912292017019353,-0.01003998543927446
1783338296939857700,8.620857666015626,0.08561609022617339,0.012824058633274397,-0.01359378719702363
1783338296949830700,8.63083056640625,0.08486614864170551,0.012385253940767142,-0.020536318077612668
1783338296959803600,8.6408037109375,0.06271686067581177,0.0013314609496039337,0.0010552629402838646
1783338296969775600,8.650775634765624,0.08995265812575817,0.007158696665207389,0.0018600765171460805
1783338296979748600,8.66074853515625,0.09608955344557761,0.01686017999827163,-0.0009157996706664562
1783338296989720600,8.670720458984375,0.0752899265229702,0.001591771836625412,-0.003759589995536953
1783338296999693600,8.680693603515625,0.09369535178542136,-0.003681179580639582,-0.0013566935722716153
1783338297009666600,8.69066650390625,0.08696165961623191,0.015915871185751166,-0.014684231048543005
1783338297019638500,8.700638427734376,0.08426818274855613,0.002147339343174826,-0.010036423509009181
1783338297029611500,8.710611572265625,0.09160334794223308,0.010466464939748402,-0.007381543352361768
1783338297039583700,8.720583740234375,0.08217793247103691,0.009581820742459966,-0.007625855235941708
1783338297049556700,8.730556640625,0.10148059883415698,0.011281902658613398,-0.005864234124589711
1783338297059529500,8.740529541015626,0.08322539569735526,0.011431706942443269,-0.001199950374290347
1783338297069501700,8.750501708984375,0.09130757986605167,0.004199013459263369,0.00784068529671058
1783338297079474700,8.760474609375,0.08277823645174504,0.009751377756241708,-0.007109850271511823
1783338297089446700,8.77044677734375,0.07664309469759464,0.0029928182905656284,0.008301763469818979
1783338297099420200,8.780420166015626,0.09325520680248736,-0.006277591565297916,-0.007184522942919284
1783338297109393200,8.79039306640625,0.07350596571564674,0.0024378581387922166,-0.003029704818408936
1783338297119365000,8.800365234375,0.07096212645173072,0.0031787670334335414,-0.012007778380904346
1783338297129338000,8.810338134765624,0.07784545622467995,0.0145468136055395,-0.011257526269182562
1783338297139311000,8.82031103515625,0.09610182840526103,0.014346932235441635,-0.008831303769256919
1783338297149283000,8.830282958984375,0.08277999001741408,-0.0003534918960765935,-0.010772994155250489
1783338297159256000,8.840256103515625,0.09025660950839519,0.0049854031801573,0.0017647446502000092
1783338297169228000,8.85022802734375,0.08456628891229628,0.013057330816320609,-0.009889397987443952
1783338297179201000,8.860200927734375,0.07902852852940559,-0.0016085814075311644,-0.0027540662148036062
1783338297189174300,8.87017431640625,0.09219722218215465,0.0004410856978502124,0.0011586319832131266
1783338297199146000,8.88014599609375,0.0800742381900549,0.014715425337827763,-0.014906093638297169
1783338297209119000,8.890118896484376,0.07708382420241833,0.019620155364053787,-0.004500508023332804
1783338297219091200,8.90009130859375,0.08845803565382956,-0.0008790752563159912,-0.004584606110211461
1783338297229064000,8.91006396484375,0.09115326608717442,0.006995478060666937,-0.008711257586162537
1783338297239037000,8.920036865234374,0.09774024326205254,0.014415138633444438,-0.006813351542968303
1783338297249009200,8.930009033203126,0.07529226461052894,0.008381313245743512,-0.012874058087728917
1783338297258982100,8.939982177734375,0.08920563915073872,0.003444653711293358,0.0024530191753059623
1783338297268954000,8.9499541015625,0.09324819253981113,0.001785056785866618,-0.0063046531021595
1783338297278927000,8.959927001953124,0.08067804930210112,0.006462462595931719,-0.004820351094845682
1783338297288900000,8.969900146484376,0.07992752319574356,0.009604731260589323,-0.00565819015847519
1783338297298872000,8.9798720703125,0.08157412135899067,0.01130093843593495,-0.011752963369619101
1783338297308845000,8.989844970703125,0.09429390220046042,0.006295545063808095,0.009974482455011457
1783338297318817000,8.999817138671874,0.07274725630283355,0.00405661616375437,-0.00241283329539001
1783338297328790300,9.009790283203126,0.09145137225091457,0.010443737084709573,-0.011404661388602107
1783338297338763000,9.019762939453125,0.08711071269810199,0.0014708831200259736,-0.018923183792550115
1783338297348735000,9.02973486328125,0.08875497277379035,0.0072129635861143465,-0.008078439575340598
1783338297358708200,9.039708251953124,0.08546177644729613,0.009535609263845253,-0.0048169535613618785
1783338297368680000,9.049679931640625,0.09055003949701786,0.008090655169519595,-0.01586339436313137
1783338297378653000,9.05965283203125,0.06705576666295528,0.0027432183105149306,-0.000041647184640169144
1783338297388626200,9.069626220703125,0.09114858991205692,0.013476510643039364,-0.010947163412068039
1783338297398598100,9.07959814453125,0.09504150569736956,0.022176429417857434,-0.007709734127111733
1783338297408571000,9.08957080078125,0.08920856176018714,0.007708208890305832,0.0048028154381550845
1783338297418543000,9.099543212890625,0.0913023191690445,-0.00414102021130966,-0.01156447332650423
1783338297428516000,9.10951611328125,0.0694558135420084,0.011096063513599801,-0.018273469445854423
1783338297438489000,9.119489013671876,0.08367197042107581,0.018145920376316644,-0.002236380749940872
1783338297448461000,9.1294609375,0.09115501965284346,0.01399276220264146,-0.004892229020968079
1783338297458434000,9.13943408203125,0.08217500986158847,-0.000581313869159203,-0.015568174276221543
1783338297468407000,9.149406982421874,0.08411971418857574,0.020009919583331794,-0.0030000951314345
1783338297478379000,9.15937890625,0.08920505462884902,0.004510063586256001,-0.010100666117947549
1783338297488352000,9.16935205078125,0.08037468244135379,-0.0019706470524193716,-0.003727989280875772
1783338297498324200,9.17932421875,0.09892799174189568,0.004998107398103456,-0.01023751730537042
1783338297508297200,9.189297119140624,0.0850099410265684,0.0009701099740574135,-0.017928236204758287
1783338297518270000,9.19927001953125,0.08171674470007419,0.0029149079158785752,-0.013638649252057074
1783338297528242200,9.2092421875,0.09578209493160247,-0.0037661635835072953,-0.009905326208937913
1783338297538215200,9.219215087890625,0.08066928147375584,0.005373041657719295,-0.008658066094201057
1783338297548187100,9.229187255859374,0.07573065602779389,0.008892489054717588,-0.005984517769701779
1783338297558160100,9.23916015625,0.06989420495927333,0.006667392317194026,0.008833513992652297
1783338297568133000,9.249133056640625,0.08949673105180263,0.009857368014520033,-0.006116016928572207
1783338297578105000,9.25910498046875,0.06944763023555278,-0.007728566691745072,-0.011127433616109192
1783338297588078000,9.269078125,0.07558277198970317,0.006817048187262844,-0.018913447849825023
1783338297598050000,9.279050048828125,0.07438625568151473,0.015782819390611255,0.0022001769253984092
1783338297608023000,9.28902294921875,0.08800444666743278,-0.0021348451877827757,0.008229702880606055
1783338297617996300,9.298996337890625,0.08650690158605576,-0.0020866700809448954,0.0018962255427613854
1783338297627968000,9.308968017578126,0.08620587281286717,0.003404047706269193,-0.015069102180283516
1783338297637941200,9.318941162109375,0.07887246118485927,0.0068681230706628404,-0.007029697707388549
1783338297647913200,9.328913330078125,0.077377254191041,0.00045620335187995803,0.00871182384174317
1783338297657886000,9.338885986328124,0.08560907596349716,0.011463271124486345,-0.026376367609016595
1783338297667859200,9.348859130859376,0.07468553088903426,-0.010376060409669298,0.0029680377590470012
1783338297677831200,9.3588310546875,0.08665478562414645,0.0027915646640001793,-0.005037080851756036
1783338297687804000,9.368803955078125,0.10116787962317467,0.001912996297760401,-0.0194611265941523
1783338297697776000,9.378776123046874,0.10835106912553309,0.006027333998121321,-0.0011850633324123918
1783338297707749000,9.3887490234375,0.0853068781465292,-0.0006145859510987066,-0.011501527625508606
1783338297717722000,9.39872216796875,0.08335691312253475,0.01020512657284271,-0.001795432049408555
1783338297727694000,9.408694091796875,0.1028092170894146,0.024693609003711026,0.004922404963523149
1783338297737667000,9.4186669921875,0.08814531644284725,0.004324480169569142,0.0016538681542500853
1783338297747639300,9.428639404296876,0.08949263939857482,0.011928694395860657,-0.0050641149891540406
1783338297757612000,9.438612060546875,0.09502981525957584,-0.01608322254271479,-0.014010076380334793
1783338297767585000,9.4485849609375,0.10849953768551349,0.00014881105327513067,-0.007953662418201566
1783338297777557200,9.45855712890625,0.07183715572059154,-0.004033310636691749,-0.01188501051776111
1783338297787530200,9.4685302734375,0.07632394574582577,0.002992016856255941,-0.00928348624985665
1783338297797502000,9.478501953125,0.06689736123085022,0.004448314328503329,-0.014645488207042217
1783338297807475200,9.48847509765625,0.0824614255875349,0.0014499293802538887,-0.007241806088108569
1783338297817448200,9.4984482421875,0.07333645436763762,0.00854136264566332,-0.005946596912108361
1783338297827420000,9.508419921875,0.07543196534216404,0.0019347491885535419,-0.02000449448954314
1783338297837393200,9.51839306640625,0.11179448757767677,-0.002308882013859693,-0.004553352455422282
1783338297847365000,9.528365234375,0.09144435798823833,0.008108939744881354,-0.0040886758194305
1783338297857338000,9.538338134765626,0.08889934968054294,-0.00819384154935833,0.005449479311238974
1783338297867311000,9.54831103515625,0.10057108277380467,0.011912606344162486,-0.02281834633387625
1783338297877283000,9.558282958984375,0.07782675152420997,0.009594981618132442,0.009844353269319981
1783338297887256000,9.568256103515624,0.07947218064367771,-0.0006924255438381805,-0.006342647024989128
1783338297897228000,9.57822802734375,0.08112053237259388,-0.004021706963866017,0.001370612499769777
1783338297907201000,9.588200927734375,0.10461889685988425,0.012927171947876922,-0.010128741434961556
1783338297917174000,9.598174072265625,0.07514204248487949,0.009328243273613042,-0.0043713286857120694
1783338297927146200,9.608146240234374,0.1138975973367691,0.014318318062310572,-0.0120341366648674
1783338297937119000,9.618118896484376,0.09219839122593403,0.018685669259226413,-0.006256777106132358
1783338297947091200,9.62809130859375,0.08097498642206191,-0.008757690543774515,-0.0004468852509744465
1783338297957064200,9.638064208984375,0.0808230107307434,0.011877630928903817,-0.006354501859564334
1783338297967037200,9.648037109375,0.09354162252843379,0.025417201437370383,0.005886409423779696
1783338297977009200,9.658009033203125,0.08231938676834107,0.002867477161134593,0.006939242944959551
1783338297986982100,9.667982177734375,0.10416939952671528,0.01120737840096699,-0.007013605089113116
1783338297996954000,9.6779541015625,0.05778232688307762,0.0036709298979723825,-0.017635189808625728
1783338298006927000,9.687927001953126,0.08995382716953754,0.007860040734440554,-0.0032767566483467817
1783338298016900000,9.697900146484375,0.09594166940748691,0.0017559905215865,-0.023246782612707465
1783338298026872000,9.7078720703125,0.08412029871046543,0.010713445987738669,-0.006671221392229199
1783338298036845300,9.71784521484375,0.06930559141635895,-0.00493373464171309,-0.005497976361773908
1783338298046818000,9.727818115234374,0.10117664745151995,0.004119155439373572,-0.014669855463318527
1783338298056790000,9.7377900390625,0.0871101281762123,0.007992469191784039,-0.0027148484492674468
1783338298066763300,9.74776318359375,0.0878600697606802,0.011546074586710892,-0.005353288927767426
1783338298076735000,9.75773486328125,0.08442015843987465,-0.000743669390596915,-0.01441664788722992
1783338298086708000,9.7677080078125,0.07873685210645198,0.011826535495906136,-0.005337159776873887
1783338298096681200,9.77768115234375,0.08307751165926457,-0.003272555397264659,-0.004835092006251216
1783338298106652400,9.78765234375,0.08053367239534855,-0.0025976700766943395,0.005924677341245114
1783338298116625400,9.79762548828125,0.07724106059074401,0.004027965458005201,-0.020880583204329013
1783338298126597400,9.807597412109375,0.09385258817374706,0.0015170968819293192,-0.006607088381145149
1783338298136570400,9.8175703125,0.08682020531892776,0.0096587538696127,-0.005107935864571481
1783338298146543600,9.827543701171875,0.08861702560782432,0.008878010721504688,-0.0028114589578472076
1783338298156515300,9.837515380859376,0.09235971926748753,0.007942214009002782,0.0021943865054287015
1783338298166488300,9.84748828125,0.07754735006093978,0.0035504658730584194,-0.0058329074045643204
1783338298176460500,9.85746044921875,0.07739654341340065,0.008971495407947803,-0.01170495950942859
1783338298186433300,9.867433349609374,0.09056406802237034,0.013137914921995252,-0.0006599252134561538
1783338298196405500,9.877405517578126,0.08068915521800518,0.0031231666719657367,0.0014940014174208043
1783338298206378500,9.88737841796875,0.09505494970083236,-0.001492062905372586,-0.01286435867762193
1783338298216351500,9.8973515625,0.08742226286530494,0.006492901116679422,0.0022115568359382448
1783338298226323500,9.907323486328124,0.09026829994618892,0.008731254627997986,0.007536880044545978
1783338298236296400,9.91729638671875,0.10193886399567127,-0.0001145000750082545,-0.012994597461167722
1783338298246269400,9.92726953125,0.08038929548859595,0.009743794954696204,0.006257288562785833
1783338298256241400,9.937241455078125,0.08772329163849353,0.0010437962647760286,-0.010597272262163459
1783338298266214400,9.94721435546875,0.07200958967804909,0.01706725601084763,-0.009005363428220153
1783338298276186400,9.957186279296875,0.0803875419229269,-0.0037859300131909547,-0.015954744174703956
1783338298286159400,9.967159423828125,0.08757073142528533,0.004610551118932198,-0.0228176704804413
1783338298296132400,9.97713232421875,0.07500000366568566,0.005997895557794254,-0.0026657486105337736
1783338298306104300,9.987104248046874,0.08562251996695995,0.0017369593108422122,-0.007202533523645252
1783338298316077600,9.99707763671875,0.08098492329418659,-1.8951295642182229e-7,-0.010766144289355725
1783338298326049300,10.00704931640625,0.09295534707307815,0.005505164154386148,-0.013642978367302565
1783338298336022300,10.017022216796875,0.07873919019401072,0.012221366332657635,-0.005608450998924672
1783338298345994500,10.026994384765626,0.08143091349601746,0.004169191426446195,-0.0011703224210068582
1783338298355967200,10.03696728515625,0.08337795591056346,0.018680305814230812,-0.01922978378999978
1783338298365940200,10.046940185546875,0.08921265341341494,0.007785719689482357,-0.011025781606230883
1783338298375912400,10.056912353515624,0.08083060951530933,0.0036180512165534307,-0.011277838404849172
1783338298385885400,10.066885498046876,0.09235328952670097,0.016095865111867898,-0.0061647879737429315
1783338298395858200,10.076858154296875,0.08667173675894736,0.0055587849046103656,0.005357270983140915
1783338298405830400,10.086830322265625,0.0919113909780979,0.019746076448797247,-0.020444000151660292
1783338298415803400,10.096803466796874,0.08008592862784862,0.012463799069693776,-0.008476937373634428
1783338298425775400,10.106775390625,0.08248013028800487,-0.007323273826483637,0.008284775802399962
1783338298435748400,10.116748291015625,0.08757014690339565,-0.0009329129189602098,-0.010481664792168884
1783338298445721300,10.126721435546875,0.08113806802928447,0.0002340941669535823,-0.013841405282542109
1783338298455693600,10.136693603515624,0.09984393754303454,0.0036221040538745,0.002353266861569136
1783338298465666300,10.146666259765626,0.10104103837311268,0.013156420976354274,-0.007511946532689035
1783338298475638300,10.15663818359375,0.08922375932931899,-0.0036447862431406974,-0.009015172436181456
1783338298485611500,10.166611572265625,0.0827922649770975,0.012612546190887223,-0.00934268735749647
1783338298495583200,10.176583251953126,0.055256607797741886,-0.001401025904342532,0.0006069346508942545
1783338298505556200,10.18655615234375,0.09161913003325461,-0.0003110432771267369,-0.005066160815767944
1783338298515529500,10.196529541015625,0.08159224153757094,0.005767294822447001,-0.009881397344078868
1783338298525501400,10.20650146484375,0.08637830677032471,0.0025733918686746617,-0.015938633290119467
1783338298535474200,10.21647412109375,0.07994330528676509,0.004071692718588747,-0.00907758841421455
1783338298545447400,10.226447509765626,0.0848795926451683,0.011125485970906446,-0.011992416414991021
1783338298555419400,10.23641943359375,0.09490531209707259,0.008247599296900443,-0.006603343787789344
1783338298565392400,10.246392333984375,0.08787176019847392,0.017918292482767717,-0.011851035182923077
1783338298575364400,10.2563642578125,0.09250818782746792,0.0029661015302874147,-0.013421882962528615
1783338298585337300,10.26633740234375,0.08397709084749222,0.0002688115705968812,0.002362600945495069
1783338298595309600,10.2763095703125,0.08906476937532425,0.0036991102462634443,-0.007804061347059905
1783338298605282300,10.2862822265625,0.07649637970328331,-0.007206620610295794,-0.0040245976072736086
1783338298615255300,10.29625537109375,0.09475099831819533,-0.0009521267927950248,0.002379113688878715
1783338298625227500,10.3062275390625,0.08098609233796596,0.007432143311726394,0.010804704467765986
1783338298635200500,10.316200439453125,0.07844342211782931,0.009396314957586582,-0.004690386305935681
1783338298645172500,10.32617236328125,0.08472878599762916,0.010890784449176863,-0.00632403365606442
1783338298655145500,10.3361455078125,0.07245908701121807,-0.005459863707935437,-0.007504402547050267
1783338298665118500,10.346118408203125,0.0776952340990305,0.007129950061335694,-0.0044009018400684
1783338298675090400,10.35609033203125,0.09355623557567595,-0.0018453378890291787,-0.01012552656456828
1783338298685063400,10.3660634765625,0.09131225604116916,-0.0047793066984042525,-0.004114979304466396
1783338298695035400,10.376035400390625,0.08248188385367393,0.01174146016149316,-0.008822663805074989
1783338298705008400,10.38600830078125,0.0946001916706562,0.010051016006653661,-0.0026200645715929566
1783338298714981400,10.3959814453125,0.1025298156261444,0.011198857167793903,0.0010873751115985215
1783338298724953300,10.405953369140626,0.08262859884798526,-0.0069423162514576685,-0.0008246325221844017
1783338298734926300,10.41592626953125,0.08562310448884963,0.010856231442315038,0.004771963642165065
1783338298744898300,10.425898193359375,0.09519757304191588,0.0060475182696245605,-0.0030937464979477226
1783338298754871300,10.435871337890624,0.07484861249625682,0.001822906861512456,-0.004969404176715761
1783338298764844500,10.445844482421874,0.08292962762117385,-0.00520441394241061,-0.002103274155873805
1783338298774816300,10.455816162109375,0.08008592862784862,0.007280128804501146,-0.004829557314608246
1783338298784789200,10.465789306640625,0.08696808935701847,0.0012489200655720195,0.007413363262731581
1783338298794761500,10.475761474609374,0.08622107038199901,0.00229514803274069,-0.00003150938311591744
1783338298804734500,10.485734375,0.08038578835725783,0.0057717700681649145,0.0007352920046076178
1783338298814707200,10.495707275390625,0.08203063295483588,0.0058887155452976,0.003812726688571274
1783338298824679400,10.505679443359375,0.0847223562568426,0.0033239978901343416,-0.004625723571889102
1783338298834652400,10.51565234375,0.0860690946906805,-0.004064301713288296,-0.01644941409016028
1783338298844624400,10.525624267578126,0.08577040400505065,-0.0005044401075108908,-0.005782163598015904
1783338298854597400,10.535597412109375,0.07140460952222347,0.006200003134307917,-0.003711494803801179
1783338298864570400,10.5455703125,0.08846212730705738,0.00982201129005989,-0.011659695595595985
1783338298874542600,10.55554248046875,0.10387655405998229,0.0018054716695216483,-0.004889635205082595
1783338298884515300,10.565515380859376,0.09624620531201362,0.002816669422504492,-0.011126520300656556
1783338298894487300,10.5754873046875,0.09429974741935729,0.008806762983044608,-0.0017353541589342056
1783338298904460500,10.58546044921875,0.08337269521355628,-0.009135042806051206,-0.0033620968442410228
1783338298914433500,10.59543359375,0.09011047903597354,0.0062385359132545995,-0.017121340268664062
1783338298924405200,10.6054052734375,0.08951251314282417,0.0006555458658607676,-0.006930456850305199
1783338298934378500,10.61537841796875,0.08038345026969909,0.009904657205368858,-0.006965400299523025
1783338298944350500,10.6253505859375,0.08113105376660823,0.0022649058748153037,-0.003837112211156636
1783338298954323200,10.6353232421875,0.084274027967453,-0.005546229100425262,-0.008902359711471944
1783338298964296400,10.64529638671875,0.09085866705477237,0.01133182219796581,0.002045497820340097
1783338298974268400,10.655268310546875,0.08337737138867378,0.01199546460531419,-0.006925451881624758
1783338298984241400,10.665241455078124,0.08442366557121277,0.003303535057418048,-0.0035109672630205748
1783338298994213400,10.67521337890625,0.1005868648648262,-0.004649337342916987,-0.00030276407254859806
1783338299004186400,10.685186279296875,0.10073825603425503,-0.0007142149672494269,-0.009956070015486328
1783338299014159400,10.695159423828125,0.09639759648144244,0.015073417595797218,-0.010578695425856858
1783338299024131300,10.70513134765625,0.07290390816926956,0.015781122907157986,-0.0037443741600960492
1783338299034104300,10.715104248046876,0.09475158284008503,-0.0002947542960289866,0.007351933665387332
1783338299044076500,10.72507666015625,0.08652326819896697,0.01788528754559811,0.0006756525055505335
1783338299054049500,10.735049560546875,0.08218143960237502,0.0074350019890931434,-0.009120569039415568
1783338299064022300,10.745022216796874,0.08876490964591503,0.014487436684675049,0.002663757582847029
1783338299073994500,10.754994384765626,0.09101005822420119,0.004727941837348044,-0.010172142185270785
1783338299083967500,10.764967529296875,0.092060444059968,0.007156137098651379,0.0005540902188047766
1783338299093939200,10.774939208984375,0.08323065639436245,0.007555879289249424,-0.0014283157700672746
1783338299103912700,10.78491259765625,0.07694763060212134,0.010327337313559837,-0.011705251770373433
1783338299113885700,10.7948857421875,0.08338146304190158,-0.008160996442392933,-0.007849946315400301
1783338299123857400,10.804857421875,0.08652385272085666,0.0015885775158298201,0.003993380485102534
1783338299133830700,10.81483056640625,0.0790413880109787,-0.0019190881118294782,-0.004557480641268193
1783338299143802600,10.824802734375,0.09415361694693565,-0.0013720783710712567,-0.012209840291645378
1783338299153775600,10.834775634765625,0.07066226672232151,0.004465235780552029,-0.00047930794954299924
1783338299163748600,10.84474853515625,0.0895154357522726,0.001400594362791162,-0.016364676682464777
1783338299173720600,10.854720458984374,0.08337795591056346,0.007913394339894875,-0.013767572861351073
1783338299183693600,10.864693603515626,0.0904085851997137,0.009708559244533534,-0.012665785631909966
1783338299193665500,10.87466552734375,0.08307634261548519,0.01565165587516967,-0.0020305011806078252
1783338299203638500,10.884638427734375,0.08861527204215526,0.00609760448904708,-0.011087448665592818
1783338299213610800,10.89461083984375,0.08038286574780941,-0.0012283978673513047,-0.011601462602335959
1783338299223583700,10.904583740234376,0.089214406979084,-0.0039146960755693724,-0.0008861169184558093
1783338299233556500,10.914556396484375,0.09610299744904041,-0.004799221541848964,-0.0047495143483392895
1783338299243528700,10.92452880859375,0.07500409531891346,-0.00336732557520736,-0.01551975029092282
1783338299253501700,10.934501708984374,0.08368249181509017,-0.001840944841702003,-0.0017915413255803285
1783338299263473400,10.944473388671875,0.09789981773793696,0.018436580735829194,-0.011309073793329297
1783338299273446700,10.95444677734375,0.10253682988882064,0.018170004504802637,-0.024982556896749882
1783338299283419600,10.964419677734375,0.07904255705475807,0.00958123622057028,-0.004383439248614013
1783338299293391600,10.9743916015625,0.08218553125560284,0.008880627370276489,-0.010197240093909203
1783338299303364600,10.984364501953126,0.09535130229890346,-0.001306385873851832,-0.008179525329638272
1783338299313336600,10.994336669921875,0.07170914542675018,0.005670478817890398,-0.0009889745047315954
1783338299323309600,11.0043095703125,0.0787444508910179,0.004788517484744079,-0.0029989078213460744
1783338299333282800,11.01428271484375,0.08757306951284408,0.006204674742848146,-0.014841759697813539
1783338299343254500,11.024254638671875,0.07829378451406956,-0.0040865432278485965,-0.004875497081875801
1783338299353227500,11.0342275390625,0.09131225604116916,0.002469061561231501,-0.0035209589340724047
1783338299363199700,11.04419970703125,0.07560206121206284,0.008860639461595564,-0.0039033275814726945
1783338299373172500,11.05417236328125,0.07455576702952385,-0.001510288115229923,-0.008640804432146251
1783338299383145500,11.0641455078125,0.08936988980174064,0.009251867268886417,-0.010146770281996577
1783338299393117700,11.07411767578125,0.08966974953114985,0.015196605584048666,-0.012066888156998901
1783338299403090700,11.084090576171874,0.08203764721751212,0.0015815541199990547,-0.013884550304524599
1783338299413062700,11.094062744140626,0.08637363059520721,-0.004413528426201082,0.0017047215586528182
1783338299423035600,11.10403564453125,0.07694646155834198,0.003341284668364096,-0.003527534805331379
1783338299433008600,11.114008544921875,0.08293021214306354,0.020111361530655993,-0.008381623772997409
1783338299442980600,11.123980712890624,0.08891220916211605,0.008383137593360152,0.003023914398439228
1783338299452953600,11.13395361328125,0.1004302129983902,0.013895587721769697,-0.010738050706032664
1783338299462925600,11.143925537109375,0.0869622441381216,0.009466357119649183,-0.008945358602982014
1783338299472898600,11.153898681640625,0.06631108577549458,0.002654286501603201,-0.009282773863803594
1783338299482871600,11.16387158203125,0.07259411156773567,-0.0010845347005408257,-0.006968085446953773
1783338299492843500,11.173843505859375,0.09339140040278435,-0.00199262598878704,-0.009579802315309643
1783338299502816800,11.183816650390625,0.08007248462438583,0.002316544730507303,-0.015301741892378776
1783338299512788500,11.19378857421875,0.08366320259273052,0.010661946412653197,-0.007540387175884097
1783338299522761500,11.203761474609376,0.08441197513341903,0.005656893250532448,-0.013806352235469966
1783338299532734700,11.213734619140626,0.09249299025833606,-0.002490953732631169,-0.0032973610449582337
1783338299542706400,11.22370654296875,0.07453823137283325,0.004829858708707615,-0.004878821550123393
1783338299552679400,11.233679443359375,0.08142273018956184,0.007367873303324449,-0.006634469578415155
1783338299562651600,11.243651611328126,0.0866617998868227,-0.000010608158982358873,-0.01808744535446167
1783338299572624600,11.253624755859375,0.07124795765578747,0.013721194702666252,0.0011773366836830973
1783338299582596600,11.2635966796875,0.08695990605056285,0.0009385161092621274,-0.008531608436629175
1783338299592569600,11.273569580078124,0.087707509547472,0.02029665040310938,-0.005404653788823634
1783338299602542600,11.28354248046875,0.09159633367955684,0.0047808524848078375,-0.005611117880046367
1783338299612514600,11.2935146484375,0.08321370525956154,0.006718024242599495,-0.010817107291612773
1783338299622487600,11.303487548828125,0.09114391373693942,0.003161414039833471,-0.014413944473490118
1783338299632459500,11.31345947265625,0.07812368864417076,0.004979948403616436,-0.010593217141553759
1783338299642432800,11.323432861328126,0.08111351810991764,-0.001327634157857392,-0.013838153879530727
1783338299652405500,11.333405517578125,0.08021393892168999,0.0019268878257949836,-0.004770045679714531
1783338299662377500,11.34337744140625,0.07797171295285224,0.005896353145770262,-0.012614932227507232
1783338299672350700,11.353350830078124,0.07677461212277412,0.01364160382754635,-0.012311693230923265
1783338299682322400,11.363322509765625,0.08216156585812569,-0.0024580150108318775,0.002827752505522221
1783338299692295400,11.37329541015625,0.0918903481900692,0.007063325982354581,0.010385218680370598
1783338299702268700,11.3832685546875,0.0903957257181406,0.0195784921963932,0.006870689487084746
1783338299712240600,11.39324072265625,0.08485679629147053,0.0011476767643587662,-0.013996979436744003
1783338299722213600,11.403213623046875,0.09832418062984943,0.003476489604683593,-0.004709931256622076
1783338299732185600,11.413185546875,0.08006722392737865,-0.009337285096594133,-0.009983743473701179
1783338299742158600,11.42315869140625,0.07737199349403381,0.0035594871464418244,-0.0006198489313945174
1783338299752131600,11.433131591796876,0.08096388050615787,-0.008461465809866786,-0.0020981413230299947
1783338299762103600,11.443103515625,0.09308218832314014,0.0029359118880005553,-0.009815492501016706
1783338299772076500,11.45307666015625,0.1008615901529789,-0.006356849080277606,-0.02349790782956406
1783338299782048800,11.463048828125,0.09816752876341342,0.00944109253094066,-0.0022749043957330287
1783338299792021500,11.473021484375,0.08499941963255404,0.006703703456302173,-0.017386201749928294
1783338299801994500,11.482994384765625,0.08649345758259296,-0.002984774264716543,-0.022821963063068686
1783338299811966700,11.492966796875,0.07766191635131836,0.0040567006454337385,-0.0018423216647468507
1783338299821939700,11.502939697265624,0.09232698604166507,0.00847168124320451,-0.005397584727220237
1783338299831911700,11.51291162109375,0.09037935910522937,0.0024726919901557265,-0.027770105256047097
1783338299841884700,11.522884765625,0.09561492167115211,-0.004483310293359682,-0.004331215871032327
1783338299851856600,11.532856689453125,0.09037702101767063,0.010250440719025209,-0.0009068491792306304
1783338299861829600,11.54282958984375,0.09531740002930164,0.005763609594595618,0.004709949522931129
1783338299871802600,11.552802734375,0.08185001569092273,-0.0037947572070406747,-0.006662088237702846
1783338299881774600,11.562774658203125,0.09606558804810046,-0.00026861520777456463,-0.018474691106379032
1783338299891747800,11.572747802734375,0.09502046290934085,0.006279235533112659,-0.0005763751158490777
1783338299901719600,11.582719482421876,0.0912801073372364,0.001375503304018639,0.0006541165271773934
1783338299911692500,11.592692626953125,0.08544424079060554,0.00040376762845553455,-0.0042673568545840675
1783338299921665800,11.602665771484375,0.09935995341837406,0.0070305562239140265,-0.003092668785713613
1783338299931637500,11.612637451171874,0.08379588906168937,0.004189638276142068,0.008071461845282464
1783338299941610500,11.622610595703126,0.07780980038940906,0.00849141799013596,-0.008115867242589593
1783338299951582700,11.632582763671875,0.08274608774781227,0.00808230746628251,-0.003988521646894515
1783338299961555500,11.642555419921875,0.08813245696127414,0.0009786494735395535,-0.008335282146930694
1783338299971528400,11.652528564453124,0.08708616277873515,0.002754166679503396,-0.004412592277862132
1783338299981500700,11.662500732421876,0.08229834398031234,-0.003002451485302299,-0.005579334502294659
1783338299991473700,11.6724736328125,0.09037819006145,0.016925278840446843,-0.0031997276230715213
1783338300001445600,11.682445556640625,0.08349310672283172,-0.0009173705732449888,-0.0038565840966068208
1783338300011418600,11.692418701171874,0.09710895962119102,-0.006236410171538591,-0.0071874455523677164
1783338300021391600,11.7023916015625,0.09396656994223594,0.009167855946975759,-0.011066405877564101
1783338300031363600,11.712363525390625,0.075861004409194,0.011305068905069491,-0.005509538935404271
1783338300041336600,11.722336669921875,0.09516425529420375,-0.00471700945138,0.003753014124277979
1783338300051308500,11.73230859375,0.0818470930814743,0.0067348155471961945,-0.0009988565779291093
1783338300061281800,11.74228173828125,0.08454115447103977,0.014749231709307059,0.005468823332525789
1783338300071253500,11.75225341796875,0.08394260405600071,0.0024759707926306873,-0.004563745985273272
1783338300081226500,11.7622265625,0.08558744865357876,0.005304805576964281,0.004079926257394254
1783338300091199700,11.77219970703125,0.0906739581376314,-0.0023963570846244693,0.008096066563576459
1783338300101171700,11.782171630859375,0.07421382172405719,0.0040092128084739664,-0.00044317719023674726
1783338300111144700,11.792144775390625,0.08468903850913047,0.008239525588299147,-0.008205043363384902
1783338300121116700,11.80211669921875,0.08573708625733852,0.00019704324232880025,0.0030420893759466705
1783338300131089700,11.812089599609376,0.08289221822023392,-0.0055740190063603215,-0.0018215711376629768
1783338300141062700,11.822062744140625,0.07825169893801212,0.007796124635776504,-0.004722133151069283
1783338300151035000,11.832034912109375,0.0885743555098772,-0.0025149967619217933,-0.002401142857596278
1783338300161007600,11.842007568359374,0.06971826387047768,0.00632143070702441,-0.006954513579327613
1783338300170979800,11.851979736328126,0.07286357615888119,0.01067017766817007,-0.009553115237783641
1783338300180952800,11.861952880859375,0.0980026935905218,-0.007920458834921009,-0.004578760891314595
1783338300190925800,11.87192578125,0.07690437598228454,-0.003382925003138371,-0.005908529924042522
1783338300200897800,11.881897705078124,0.07481003405153751,0.008412968759331852,-0.01367850633841008
1783338300210870800,11.891870849609376,0.09695873749554157,0.0026128859121352433,-0.01029794225571677
1783338300220842800,11.9018427734375,0.10189911650717258,-0.0017202113887295127,-0.007531381885521113
1783338300230815700,11.911815673828125,0.0700268914282322,0.006210426346911117,-0.009753514914400876
1783338300240788700,11.921788818359374,0.07287175946533679,0.00235064107964281,-0.007578070571459829
1783338300250760700,11.9317607421875,0.07227554713785649,-0.0012014984439825639,-0.002567220139503479
1783338300260734000,11.94173388671875,0.08394318857789039,-0.007931240523839369,-0.010939528094884007
1783338300270705700,11.95170556640625,0.07645897030234336,0.0018980384739348663,-0.011608458598703145
1783338300280678700,11.9616787109375,0.08828034099936485,0.013347799379588104,-0.008160108243115246
1783338300290652000,11.97165185546875,0.0849888982385397,-0.0007717972232494502,-0.01309051385000348
1783338300300623600,11.98162353515625,0.0860340233772993,-0.003783719789795577,-0.008375394961610437
1783338300310596600,11.9915966796875,0.0876812060624361,0.0006338500572834163,-0.01956387458257377
1783338300320568800,12.00156884765625,0.08678221139609814,-0.0011370275061810388,-0.002235777961742133
1783338300330541600,12.01154150390625,0.08184592403769493,-0.007635805807798169,0.006043737143650651
