time,seconds_elapsed,z,y,x
1783338288374619400,0.055619384765625,-0.985809326171875,0.00262451171875,0.0285186767578125
1783338288384592400,0.06559228515625,-0.956207275390625,0.000030517578125,0.035125732421875
1783338288394564400,0.075564453125,-0.98590087890625,0.003814697265625,0.0309295654296875
1783338288404537300,0.085537353515625,-1.0194091796875,0.007171630859375,0.0225372314453125
1783338288414510600,0.095510498046875,-1.003662109375,0.0068206787109375,0.024810791015625
1783338288424482300,0.105482421875,-0.9682464599609375,0.0013275146484375,0.031646728515625
1783338288434455300,0.115455322265625,-0.972991943359375,0.0019683837890625,0.031219482421875
1783338288444428500,0.125428466796875,-1.0040740966796875,0.006195068359375,0.0234832763671875
1783338288454400300,0.135400146484375,-1.010101318359375,0.0064697265625,0.0229644775390625
1783338288464373200,0.145373291015625,-0.9842071533203125,0.004486083984375,0.0291290283203125
1783338288474346500,0.155346435546875,-0.97088623046875,0.00213623046875,0.0316314697265625
1783338288484318500,0.165318359375,-0.9920654296875,0.0055694580078125,0.0289459228515625
1783338288494291200,0.175291259765625,-1.0086517333984375,0.0056610107421875,0.0257568359375
1783338288504264400,0.185264404296875,-0.9944000244140625,0.0051116943359375,0.027313232421875
1783338288514236400,0.195236328125,-0.9766082763671875,0.0032501220703125,0.0315399169921875
1783338288524209400,0.20520947265625,-0.9839935302734375,0.0033111572265625,0.0293731689453125
1783338288534182400,0.215182373046875,-1.001251220703125,0.0053863525390625,0.0261688232421875
1783338288544154400,0.225154296875,-1.0005645751953125,0.0041656494140625,0.0258636474609375
1783338288554127400,0.23512744140625,-0.9820556640625,0.00274658203125,0.0299072265625
1783338288564100600,0.2451005859375,-0.9791717529296875,0.0025787353515625,0.0318450927734375
1783338288574072300,0.255072265625,-0.9960479736328125,0.0047149658203125,0.02630615234375
1783338288584045300,0.26504541015625,-1.00128173828125,0.006011962890625,0.0257568359375
1783338288594017500,0.275017578125,-0.9899444580078125,0.003875732421875,0.02813720703125
1783338288603990300,0.284990234375,-0.9819183349609375,0.0036163330078125,0.028717041015625
1783338288613963300,0.29496337890625,-0.9894866943359375,0.003143310546875,0.0280609130859375
1783338288623935500,0.304935546875,-0.9985809326171875,0.00531005859375,0.0264892578125
1783338288633908200,0.314908203125,-0.993927001953125,0.0044097900390625,0.0266265869140625
1783338288643881200,0.324881103515625,-0.9832611083984375,0.0036468505859375,0.029327392578125
1783338288653853400,0.334853515625,-0.987091064453125,0.0042877197265625,0.0289459228515625
1783338288663826400,0.344826416015625,-0.9959716796875,0.0042724609375,0.0275115966796875
1783338288673799200,0.354799072265625,-0.995452880859375,0.0049285888671875,0.02642822265625
1783338288683771400,0.364771484375,-0.987060546875,0.004730224609375,0.0280303955078125
1783338288693744400,0.374744384765625,-0.9852447509765625,0.00457763671875,0.0287933349609375
1783338288703717400,0.38471728515625,-0.9929656982421875,0.00494384765625,0.0273895263671875
1783338288713689300,0.394689453125,-0.9981689453125,0.0049896240234375,0.02606201171875
1783338288723662300,0.404662353515625,-0.9901580810546875,0.00408935546875,0.0283050537109375
1783338288733634600,0.414634521484375,-0.98614501953125,0.0043182373046875,0.029052734375
1783338288743607300,0.424607177734375,-0.9901123046875,0.004425048828125,0.0290374755859375
1783338288753580300,0.434580322265625,-0.9936981201171875,0.00433349609375,0.0276641845703125
1783338288763552500,0.444552490234375,-0.990692138671875,0.005584716796875,0.0270233154296875
1783338288773525500,0.454525390625,-0.9881591796875,0.0052947998046875,0.0283050537109375
1783338288783498200,0.464498291015625,-0.99041748046875,0.0041656494140625,0.027374267578125
1783338288793470500,0.474470458984375,-0.99359130859375,0.004669189453125,0.0279388427734375
1783338288803443500,0.484443359375,-0.991455078125,0.0041046142578125,0.02716064453125
1783338288813416400,0.49441650390625,-0.9894866943359375,0.0052032470703125,0.028533935546875
1783338288823388400,0.504388427734375,-0.9888916015625,0.0033111572265625,0.0286407470703125
1783338288833361400,0.514361328125,-0.9919586181640625,0.003997802734375,0.029510498046875
1783338288843334400,0.52433447265625,-0.9929656982421875,0.004547119140625,0.02764892578125
1783338288853306400,0.534306396484375,-0.98907470703125,0.0052947998046875,0.027557373046875
1783338288863279400,0.544279296875,-0.9883575439453125,0.0039520263671875,0.027374267578125
1783338288873252400,0.55425244140625,-0.9918365478515625,0.00323486328125,0.027191162109375
1783338288883224600,0.564224609375,-0.993072509765625,0.00433349609375,0.0283966064453125
1783338288893197300,0.574197265625,-0.9911956787109375,0.005035400390625,0.026824951171875
1783338288903169300,0.584169189453125,-0.9880523681640625,0.002655029296875,0.027496337890625
1783338288913142500,0.594142578125,-0.9901580810546875,0.004150390625,0.0272369384765625
1783338288923115500,0.604115478515625,-0.9936065673828125,0.00494384765625,0.02728271484375
1783338288933087200,0.614087158203125,-0.9920196533203125,0.003692626953125,0.02740478515625
1783338288943060500,0.624060546875,-0.9893341064453125,0.00433349609375,0.029052734375
1783338288953033500,0.634033447265625,-0.9893035888671875,0.004638671875,0.02886962890625
1783338288963005200,0.644005126953125,-0.9908905029296875,0.003936767578125,0.0260162353515625
1783338288972978400,0.653978515625,-0.9899139404296875,0.0052490234375,0.0279083251953125
1783338288982951400,0.663951416015625,-0.9892578125,0.0030975341796875,0.0276947021484375
1783338288992923400,0.67392333984375,-0.989776611328125,0.0023345947265625,0.0275115966796875
1783338289002896400,0.683896484375,-0.9909515380859375,0.004150390625,0.0269317626953125
1783338289012869400,0.693869384765625,-0.9911346435546875,0.0047149658203125,0.027069091796875
1783338289022841300,0.70384130859375,-0.9909515380859375,0.0031280517578125,0.0276947021484375
1783338289032814600,0.713814697265625,-0.987884521484375,0.0045928955078125,0.0277557373046875
1783338289042786300,0.723786376953125,-0.991851806640625,0.005767822265625,0.028717041015625
1783338289052759300,0.73375927734375,-0.9920806884765625,0.0035552978515625,0.02789306640625
1783338289062732500,0.743732666015625,-0.989501953125,0.004302978515625,0.027099609375
1783338289072704300,0.753704345703125,-0.989013671875,0.004425048828125,0.0263824462890625
1783338289082677200,0.76367724609375,-0.9910125732421875,0.00457763671875,0.0282745361328125
1783338289092650000,0.77364990234375,-0.991302490234375,0.0037078857421875,0.0279388427734375
1783338289102622000,0.7836220703125,-0.9907684326171875,0.0045166015625,0.0270538330078125
1783338289112595200,0.79359521484375,-0.988861083984375,0.0041046142578125,0.02593994140625
1783338289122568200,0.803568115234375,-0.9910888671875,0.0045623779296875,0.0283660888671875
1783338289132540000,0.813539794921875,-0.990509033203125,0.0037841796875,0.0278167724609375
1783338289142513200,0.82351318359375,-0.9919586181640625,0.0048828125,0.027618408203125
1783338289152486100,0.833486083984375,-0.990875244140625,0.00311279296875,0.0287017822265625
1783338289162457900,0.843457763671875,-0.9899749755859375,0.00408935546875,0.0276641845703125
1783338289172431000,0.85343115234375,-0.9922027587890625,0.0042724609375,0.0282135009765625
1783338289182403000,0.863403076171875,-0.9912872314453125,0.003387451171875,0.027435302734375
1783338289192375800,0.873375732421875,-0.990570068359375,0.0035858154296875,0.0284881591796875
1783338289202349000,0.88334912109375,-0.990814208984375,0.004302978515625,0.0269012451171875
1783338289212321000,0.893321044921875,-0.9901885986328125,0.004913330078125,0.0275421142578125
1783338289222294000,0.9032939453125,-0.99005126953125,0.00390625,0.0282440185546875
1783338289232267000,0.91326708984375,-0.988677978515625,0.0041961669921875,0.0279083251953125
1783338289242239000,0.923239013671875,-0.9903564453125,0.0043487548828125,0.0267791748046875
1783338289252212000,0.9332119140625,-0.9915924072265625,0.003753662109375,0.027740478515625
1783338289262185200,0.943185302734375,-0.99090576171875,0.0040740966796875,0.027435302734375
1783338289272157000,0.953156982421875,-0.9905242919921875,0.00518798828125,0.0280914306640625
1783338289282130000,0.9631298828125,-0.99169921875,0.00482177734375,0.0279693603515625
1783338289292102100,0.97310205078125,-0.9909210205078125,0.003326416015625,0.0280914306640625
1783338289302075000,0.983074951171875,-0.9904327392578125,0.0044403076171875,0.0281829833984375
1783338289312047900,0.9930478515625,-0.9913177490234375,0.0051422119140625,0.0281829833984375
1783338289322020000,1.00302001953125,-0.9912261962890625,0.0053253173828125,0.028564453125
1783338289331993000,1.0129931640625,-0.9913330078125,0.004608154296875,0.027740478515625
1783338289341965800,1.0229658203125,-0.990631103515625,0.003570556640625,0.0262451171875
1783338289351938000,1.03293798828125,-0.9898834228515625,0.00421142578125,0.0283355712890625
1783338289361911000,1.0429111328125,-0.9904022216796875,0.0034332275390625,0.0264739990234375
1783338289371884000,1.052884033203125,-0.99029541015625,0.00469970703125,0.027374267578125
1783338289381856000,1.06285595703125,-0.990997314453125,0.00396728515625,0.0272979736328125
1783338289391829000,1.0728291015625,-0.99224853515625,0.0033416748046875,0.0266876220703125
1783338289401802000,1.082802001953125,-0.990753173828125,0.0048980712890625,0.027862548828125
1783338289411774000,1.09277392578125,-0.9907379150390625,0.0047760009765625,0.0276947021484375
1783338289421747000,1.102746826171875,-0.9920806884765625,0.0036468505859375,0.0274658203125
1783338289431719200,1.11271923828125,-0.990081787109375,0.00469970703125,0.027801513671875
1783338289441692200,1.122692138671875,-0.990447998046875,0.004974365234375,0.0275421142578125
1783338289451665000,1.132664794921875,-0.9925079345703125,0.0040435791015625,0.02783203125
1783338289461637000,1.14263720703125,-0.991363525390625,0.0043182373046875,0.028533935546875
1783338289471610000,1.152610107421875,-0.9898223876953125,0.0035858154296875,0.0290069580078125
1783338289481583000,1.1625830078125,-0.991058349609375,0.003753662109375,0.0294189453125
1783338289491555000,1.17255517578125,-0.9903411865234375,0.0042266845703125,0.026947021484375
1783338289501528000,1.182528076171875,-0.990264892578125,0.0034332275390625,0.0276947021484375
1783338289511501000,1.1925009765625,-0.989837646484375,0.0047454833984375,0.0283966064453125
1783338289521473000,1.20247314453125,-0.9915008544921875,0.0043487548828125,0.028472900390625
1783338289531446000,1.212446044921875,-0.9906158447265625,0.0039825439453125,0.0284881591796875
1783338289541418000,1.22241796875,-0.99053955078125,0.004669189453125,0.027618408203125
1783338289551391200,1.23239111328125,-0.991302490234375,0.003875732421875,0.028289794921875
1783338289561364000,1.242364013671875,-0.9909210205078125,0.0038299560546875,0.0286865234375
1783338289571336000,1.2523359375,-0.9911956787109375,0.0032196044921875,0.0278778076171875
1783338289581309200,1.26230908203125,-0.9907073974609375,0.0045013427734375,0.0274505615234375
1783338289591282200,1.2722822265625,-0.990814208984375,0.004638671875,0.0274658203125
1783338289601254000,1.28225390625,-0.9887542724609375,0.0039520263671875,0.0273284912109375
1783338289611227100,1.29222705078125,-0.99102783203125,0.00372314453125,0.027618408203125
1783338289621200100,1.3022001953125,-0.990570068359375,0.004486083984375,0.0273895263671875
1783338289631171800,1.312171875,-0.9910888671875,0.0033111572265625,0.0277862548828125
1783338289641145000,1.32214501953125,-0.990447998046875,0.004486083984375,0.026641845703125
1783338289651117000,1.332116943359375,-0.9907379150390625,0.0030975341796875,0.0284576416015625
1783338289661089800,1.34208984375,-0.9921112060546875,0.00469970703125,0.0270843505859375
1783338289671063000,1.35206298828125,-0.9909210205078125,0.0042266845703125,0.027496337890625
1783338289681035000,1.362034912109375,-0.9893035888671875,0.004974365234375,0.0286102294921875
1783338289691008000,1.372008056640625,-0.9904327392578125,0.0035552978515625,0.028717041015625
1783338289700981000,1.38198095703125,-0.992523193359375,0.0036773681640625,0.0289459228515625
1783338289710953000,1.391952880859375,-0.99078369140625,0.004058837890625,0.02593994140625
1783338289720926000,1.401926025390625,-0.99066162109375,0.0051116943359375,0.027557373046875
1783338289730899200,1.411899169921875,-0.9933624267578125,0.0043792724609375,0.0294342041015625
1783338289740871000,1.421870849609375,-0.9909820556640625,0.0043792724609375,0.0283355712890625
1783338289750844000,1.431843994140625,-0.989715576171875,0.0045318603515625,0.0282440185546875
1783338289760817200,1.441817138671875,-0.990264892578125,0.003662109375,0.0276947021484375
1783338289770788900,1.451788818359375,-0.991058349609375,0.0045013427734375,0.0274658203125
1783338289780761900,1.461761962890625,-0.99139404296875,0.0046539306640625,0.02777099609375
1783338289790734000,1.471734130859375,-0.9897003173828125,0.0031585693359375,0.0273590087890625
1783338289800707000,1.48170703125,-0.99200439453125,0.0035400390625,0.0279693603515625
1783338289810679800,1.4916796875,-0.9906768798828125,0.0046844482421875,0.028106689453125
1783338289820652000,1.501652099609375,-0.992340087890625,0.0044708251953125,0.0281829833984375
1783338289830625000,1.511625,-0.9898681640625,0.00390625,0.0281829833984375
1783338289840598000,1.521597900390625,-0.9906768798828125,0.00372314453125,0.028656005859375
1783338289850570000,1.531570068359375,-0.9900665283203125,0.00396728515625,0.02777099609375
1783338289860543000,1.54154296875,-0.9905242919921875,0.0047607421875,0.0274810791015625
1783338289870515200,1.55151513671875,-0.9907989501953125,0.003936767578125,0.0281829833984375
1783338289880488000,1.561488037109375,-0.9904632568359375,0.0049896240234375,0.02740478515625
1783338289890461000,1.5714609375,-0.99072265625,0.0047760009765625,0.0273895263671875
1783338289900433200,1.58143310546875,-0.990814208984375,0.0041656494140625,0.027587890625
1783338289910406100,1.59140625,-0.9908905029296875,0.0043792724609375,0.0269927978515625
1783338289920379000,1.60137890625,-0.9917755126953125,0.002349853515625,0.0296173095703125
1783338289930351000,1.61135107421875,-0.990478515625,0.00494384765625,0.0269775390625
1783338289940324000,1.621323974609375,-0.9898529052734375,0.0036163330078125,0.027435302734375
1783338289950297000,1.631297119140625,-0.9905853271484375,0.00372314453125,0.0268402099609375
1783338289960269000,1.64126904296875,-0.9903106689453125,0.005706787109375,0.027374267578125
1783338289970242000,1.651241943359375,-0.9903411865234375,0.0039825439453125,0.027862548828125
1783338289980215000,1.661215087890625,-0.991729736328125,0.0032501220703125,0.0276336669921875
1783338289990187000,1.67118701171875,-0.990509033203125,0.003814697265625,0.0276336669921875
1783338290000160000,1.681159912109375,-0.9907684326171875,0.0037078857421875,0.0281219482421875
1783338290010132000,1.691132080078125,-0.98919677734375,0.0044403076171875,0.0279541015625
1783338290020105200,1.701105224609375,-0.9900970458984375,0.00506591796875,0.026092529296875
1783338290030078000,1.711077880859375,-0.990936279296875,0.004150390625,0.027130126953125
1783338290040050000,1.7210498046875,-0.9894866943359375,0.0050201416015625,0.02752685546875
1783338290050023200,1.731023193359375,-0.9911346435546875,0.0027008056640625,0.0274658203125
1783338290059996200,1.74099609375,-0.9904632568359375,0.0033416748046875,0.028594970703125
1783338290069968000,1.7509677734375,-0.9918365478515625,0.00360107421875,0.0264434814453125
1783338290079941000,1.760941162109375,-0.990203857421875,0.004852294921875,0.027252197265625
1783338290089914000,1.7709140625,-0.99176025390625,0.0055694580078125,0.0284881591796875
1783338290099886800,1.780886962890625,-0.99176025390625,0.004547119140625,0.0276641845703125
1783338290109859800,1.79085986328125,-0.990325927734375,0.004638671875,0.0263671875
1783338290119832000,1.80083203125,-0.9901885986328125,0.0044708251953125,0.02874755859375
1783338290129805000,1.81080517578125,-0.990966796875,0.0047607421875,0.02734375
1783338290139777800,1.82077783203125,-0.99102783203125,0.005157470703125,0.0281524658203125
1783338290149750000,1.83075,-0.9908905029296875,0.0054168701171875,0.0269927978515625
1783338290159723000,1.840722900390625,-0.9911651611328125,0.0040283203125,0.0273590087890625
1783338290169696000,1.850696044921875,-0.9906768798828125,0.00408935546875,0.027099609375
1783338290179668000,1.86066796875,-0.9911956787109375,0.0037994384765625,0.0279083251953125
1783338290189641000,1.870640869140625,-0.9907073974609375,0.0037994384765625,0.02752685546875
1783338290199614000,1.880614013671875,-0.9915618896484375,0.0054168701171875,0.0270233154296875
1783338290209586000,1.8905859375,-0.9917144775390625,0.0040740966796875,0.02801513671875
1783338290219559000,1.900558837890625,-0.9908447265625,0.005340576171875,0.0275115966796875
1783338290229531100,1.91053125,-0.99090576171875,0.004364013671875,0.0281219482421875
1783338290239504000,1.92050390625,-0.988922119140625,0.0050506591796875,0.028350830078125
1783338290249476900,1.930476806640625,-0.9920501708984375,0.0044097900390625,0.0272064208984375
1783338290259449000,1.940448974609375,-0.991241455078125,0.003662109375,0.0286865234375
1783338290269422000,1.950422119140625,-0.9921722412109375,0.0042724609375,0.0275115966796875
1783338290279394800,1.960394775390625,-0.9909210205078125,0.0046844482421875,0.0278167724609375
1783338290289367000,1.970366943359375,-0.9903411865234375,0.00567626953125,0.027130126953125
1783338290299340000,1.980340087890625,-0.99114990234375,0.0051422119140625,0.02825927734375
1783338290309311700,1.990311767578125,-0.99188232421875,0.0034332275390625,0.02789306640625
1783338290319285000,2.000284912109375,-0.990142822265625,0.004638671875,0.0283966064453125
1783338290329258000,2.010258056640625,-0.991119384765625,0.004791259765625,0.0284423828125
1783338290339230000,2.02022998046875,-0.990478515625,0.003570556640625,0.027618408203125
1783338290349203000,2.030202880859375,-0.991912841796875,0.0035247802734375,0.0280609130859375
1783338290359176000,2.040176025390625,-0.9897003173828125,0.00408935546875,0.0281829833984375
1783338290369148000,2.05014794921875,-0.990478515625,0.00421142578125,0.027801513671875
1783338290379121200,2.06012109375,-0.9914398193359375,0.004119873046875,0.02862548828125
1783338290389094000,2.070093994140625,-0.991180419921875,0.004150390625,0.0275115966796875
1783338290399065900,2.08006591796875,-0.990631103515625,0.00445556640625,0.027862548828125
1783338290409039000,2.0900390625,-0.9902191162109375,0.004364013671875,0.0286102294921875
1783338290419010800,2.1000107421875,-0.99114990234375,0.005279541015625,0.0280303955078125
1783338290428983800,2.10998388671875,-0.9925994873046875,0.005035400390625,0.0284423828125
1783338290438957000,2.11995703125,-0.99041748046875,0.0051422119140625,0.0267181396484375
1783338290448929000,2.129928955078125,-0.990478515625,0.0038299560546875,0.026824951171875
1783338290458901800,2.13990185546875,-0.9911041259765625,0.0057373046875,0.0273590087890625
1783338290468875000,2.149875,-0.9909820556640625,0.004791259765625,0.028289794921875
1783338290478847000,2.159846923828125,-0.990264892578125,0.0050048828125,0.0266571044921875
1783338290488820000,2.169820068359375,-0.9915008544921875,0.0038604736328125,0.0284881591796875
1783338290498793000,2.17979296875,-0.99053955078125,0.004150390625,0.029083251953125
1783338290508765000,2.189764892578125,-0.990936279296875,0.0037078857421875,0.027496337890625
1783338290518738000,2.199738037109375,-0.991119384765625,0.004425048828125,0.02740478515625
1783338290528710000,2.2097099609375,-0.9912261962890625,0.00299072265625,0.026947021484375
1783338290538683000,2.219682861328125,-0.990325927734375,0.0055084228515625,0.0271148681640625
1783338290548655900,2.22965576171875,-0.9911346435546875,0.0046539306640625,0.0269775390625
1783338290558628000,2.239628173828125,-0.99053955078125,0.003814697265625,0.02935791015625
1783338290568600800,2.249600830078125,-0.9900970458984375,0.004425048828125,0.0287628173828125
1783338290578573800,2.25957373046875,-0.990142822265625,0.00445556640625,0.0267791748046875
1783338290588546000,2.269546142578125,-0.9903106689453125,0.0042724609375,0.0285186767578125
1783338290598519000,2.27951904296875,-0.99029541015625,0.004150390625,0.0284576416015625
1783338290608491000,2.289490966796875,-0.9907073974609375,0.003509521484375,0.026947021484375
1783338290618464000,2.299464111328125,-0.992279052734375,0.0041961669921875,0.029266357421875
1783338290628437000,2.30943701171875,-0.9903106689453125,0.0040435791015625,0.02825927734375
1783338290638409000,2.319408935546875,-0.9904327392578125,0.0034027099609375,0.02801513671875
1783338290648382000,2.3293818359375,-0.990234375,0.00390625,0.0280303955078125
1783338290658355000,2.33935498046875,-0.9906158447265625,0.0045928955078125,0.027618408203125
1783338290668327000,2.349326904296875,-0.990234375,0.0042877197265625,0.0278167724609375
1783338290678300000,2.3592998046875,-0.99078369140625,0.0043487548828125,0.026885986328125
1783338290688272000,2.36927197265625,-0.989349365234375,0.0034942626953125,0.02764892578125
1783338290698245000,2.3792451171875,-0.9903106689453125,0.0032958984375,0.02764892578125
1783338290708217900,2.3892177734375,-0.990325927734375,0.004180908203125,0.0268402099609375
1783338290718190000,2.399190185546875,-0.9897003173828125,0.003082275390625,0.0294647216796875
1783338290728163000,2.4091630859375,-0.9898681640625,0.00469970703125,0.027557373046875
1783338290738136000,2.419135986328125,-0.9909210205078125,0.0047607421875,0.0274505615234375
1783338290748108000,2.42910791015625,-0.9911956787109375,0.003875732421875,0.0274505615234375
1783338290758081000,2.4390810546875,-0.989776611328125,0.0045013427734375,0.0265655517578125
1783338290768054000,2.449053955078125,-0.99053955078125,0.0040435791015625,0.026885986328125
1783338290778026000,2.45902587890625,-0.99066162109375,0.0050506591796875,0.0276031494140625
1783338290787999000,2.4689990234375,-0.98980712890625,0.0047149658203125,0.0281982421875
1783338290797971000,2.478970947265625,-0.992034912109375,0.0049591064453125,0.0288848876953125
1783338290807944000,2.48894384765625,-0.9917144775390625,0.003662109375,0.0278778076171875
1783338290817917000,2.4989169921875,-0.99163818359375,0.00408935546875,0.0286102294921875
1783338290827889000,2.508888916015625,-0.9910888671875,0.0058135986328125,0.0269012451171875
1783338290837862000,2.51886181640625,-0.992401123046875,0.0044403076171875,0.0269317626953125
1783338290847835100,2.528835205078125,-0.991424560546875,0.004241943359375,0.0272064208984375
1783338290857806800,2.538806884765625,-0.989837646484375,0.00384521484375,0.0275726318359375
1783338290867780000,2.548780029296875,-0.9903106689453125,0.0038909912109375,0.027435302734375
1783338290877753000,2.558753173828125,-0.9907379150390625,0.003509521484375,0.0289764404296875
1783338290887724800,2.568724853515625,-0.990997314453125,0.00347900390625,0.027374267578125
1783338290897698000,2.578697998046875,-0.9892120361328125,0.0047149658203125,0.027679443359375
1783338290907670000,2.588669921875,-0.990753173828125,0.003875732421875,0.027313232421875
1783338290917643000,2.59864306640625,-0.991363525390625,0.0043792724609375,0.027557373046875
1783338290927616000,2.608615966796875,-0.989288330078125,0.004669189453125,0.0275421142578125
1783338290937588000,2.618587890625,-0.99041748046875,0.00469970703125,0.027435302734375
1783338290947561000,2.62856103515625,-0.991455078125,0.0047149658203125,0.028076171875
1783338290957534000,2.638533935546875,-0.9908294677734375,0.0057373046875,0.0279388427734375
1783338290967506000,2.648505859375,-0.990142822265625,0.0051116943359375,0.026458740234375
1783338290977479000,2.65847900390625,-0.991455078125,0.0050506591796875,0.0277557373046875
1783338290987451100,2.668451171875,-0.991180419921875,0.0056915283203125,0.026641845703125
1783338290997423900,2.678423828125,-0.9908294677734375,0.0042572021484375,0.02752685546875
1783338291007396900,2.68839697265625,-0.989654541015625,0.0042724609375,0.028411865234375
1783338291017369000,2.698369140625,-0.991302490234375,0.0036163330078125,0.0281829833984375
1783338291027342000,2.708342041015625,-0.9906463623046875,0.0045013427734375,0.0268402099609375
1783338291037314800,2.718314697265625,-0.9897308349609375,0.004638671875,0.027679443359375
1783338291047287000,2.728287109375,-0.990753173828125,0.0035552978515625,0.0294036865234375
1783338291057260000,2.738260009765625,-0.9901123046875,0.0032501220703125,0.0282440185546875
1783338291067232000,2.74823193359375,-0.9906768798828125,0.004669189453125,0.0270843505859375
1783338291077205000,2.758205078125,-0.9923248291015625,0.0036773681640625,0.0274658203125
1783338291087177200,2.76817724609375,-0.9891204833984375,0.003326416015625,0.026641845703125
1783338291097149400,2.7781494140625,-0.9899444580078125,0.004302978515625,0.027984619140625
1783338291107122400,2.788122314453125,-0.991973876953125,0.0041351318359375,0.0279083251953125
1783338291117095200,2.79809521484375,-0.9906005859375,0.0029449462890625,0.0274505615234375
1783338291127067400,2.8080673828125,-0.9889678955078125,0.0047760009765625,0.027099609375
1783338291137040400,2.818040283203125,-0.9905242919921875,0.0039520263671875,0.0273284912109375
1783338291147013400,2.828013427734375,-0.9914703369140625,0.0038604736328125,0.0276336669921875
1783338291156985300,2.8379853515625,-0.99029541015625,0.005828857421875,0.027313232421875
1783338291166958300,2.847958251953125,-0.9904022216796875,0.0038909912109375,0.0268096923828125
1783338291176930300,2.857930419921875,-0.9911651611328125,0.00360107421875,0.0279083251953125
1783338291186903300,2.8679033203125,-0.9890289306640625,0.00445556640625,0.027191162109375
1783338291196876300,2.877876220703125,-0.9914093017578125,0.0049896240234375,0.02752685546875
1783338291206848300,2.88784814453125,-0.9920196533203125,0.0042877197265625,0.02685546875
1783338291216821500,2.897821533203125,-0.9899139404296875,0.0035552978515625,0.027923583984375
1783338291226794200,2.907794189453125,-0.9911346435546875,0.0053253173828125,0.02880859375
1783338291236766500,2.917766357421875,-0.9913177490234375,0.004791259765625,0.0274658203125
1783338291246739500,2.927739501953125,-0.9896240234375,0.003509521484375,0.0285491943359375
1783338291256711200,2.937711181640625,-0.99017333984375,0.005767822265625,0.027313232421875
1783338291266684400,2.947684326171875,-0.9906768798828125,0.00433349609375,0.027679443359375
1783338291276657400,2.957657470703125,-0.9918212890625,0.004364013671875,0.0283203125
1783338291286629400,2.96762939453125,-0.990753173828125,0.0046234130859375,0.02838134765625
1783338291296602400,2.977602294921875,-0.9901275634765625,0.0049285888671875,0.0285186767578125
1783338291306575400,2.987575439453125,-0.9915618896484375,0.0039825439453125,0.0270843505859375
1783338291316547300,2.99754736328125,-0.9913787841796875,0.004913330078125,0.027801513671875
1783338291326520300,3.007520263671875,-0.990814208984375,0.0043792724609375,0.027618408203125
1783338291336493300,3.017493408203125,-0.9916229248046875,0.0047760009765625,0.0275421142578125
1783338291346465300,3.02746533203125,-0.991546630859375,0.0051422119140625,0.0270843505859375
1783338291356438300,3.037438232421875,-0.990966796875,0.004669189453125,0.02655029296875
1783338291366410200,3.04741015625,-0.990997314453125,0.0039520263671875,0.0276336669921875
1783338291376383200,3.05738330078125,-0.992584228515625,0.004180908203125,0.02899169921875
1783338291386356500,3.0673564453125,-0.99078369140625,0.0047149658203125,0.0283355712890625
1783338291396328400,3.077328369140625,-0.9897003173828125,0.0040740966796875,0.028076171875
1783338291406301200,3.08730126953125,-0.9904937744140625,0.0048065185546875,0.0279388427734375
1783338291416274400,3.0972744140625,-0.9918212890625,0.00421142578125,0.0282135009765625
1783338291426246400,3.107246337890625,-0.9896697998046875,0.0046844482421875,0.0271453857421875
1783338291436219400,3.117219482421875,-0.9907073974609375,0.003631591796875,0.02764892578125
1783338291446191400,3.12719140625,-0.9922943115234375,0.0050048828125,0.029510498046875
1783338291456164400,3.137164306640625,-0.990875244140625,0.004364013671875,0.0288848876953125
1783338291466137300,3.147137451171875,-0.9891204833984375,0.0041046142578125,0.028045654296875
1783338291476109300,3.157109375,-0.99102783203125,0.0041046142578125,0.0276031494140625
1783338291486082300,3.167082275390625,-0.9928131103515625,0.0046844482421875,0.0265045166015625
1783338291496055300,3.17705517578125,-0.9908905029296875,0.00323486328125,0.0272674560546875
1783338291506027500,3.187027587890625,-0.9900970458984375,0.0035247802734375,0.028533935546875
1783338291516000300,3.197000244140625,-0.9899444580078125,0.005157470703125,0.02728271484375
1783338291525972500,3.206972412109375,-0.98944091796875,0.00372314453125,0.026702880859375
1783338291535945500,3.216945556640625,-0.990997314453125,0.004486083984375,0.0289459228515625
1783338291545918500,3.22691845703125,-0.9908294677734375,0.0049591064453125,0.02801513671875
1783338291555890400,3.236890380859375,-0.990570068359375,0.0038299560546875,0.02764892578125
1783338291565863400,3.246863525390625,-0.9924468994140625,0.0034637451171875,0.028564453125
1783338291575836400,3.25683642578125,-0.99102783203125,0.004241943359375,0.027801513671875
1783338291585808400,3.266808349609375,-0.9912109375,0.0038604736328125,0.0276947021484375
1783338291595781400,3.276781494140625,-0.99029541015625,0.0050811767578125,0.0274658203125
1783338291605753300,3.28675341796875,-0.9925994873046875,0.003753662109375,0.029205322265625
1783338291615726300,3.296726318359375,-0.9908447265625,0.00439453125,0.0270233154296875
1783338291625699300,3.30669921875,-0.990020751953125,0.00396728515625,0.0288543701171875
1783338291635671300,3.31667138671875,-0.9909515380859375,0.0043792724609375,0.02825927734375
1783338291645644500,3.32664453125,-0.9909515380859375,0.004547119140625,0.0280914306640625
1783338291655617300,3.3366171875,-0.990142822265625,0.0048980712890625,0.02685546875
1783338291665589200,3.34658935546875,-0.9904632568359375,0.0042724609375,0.02789306640625
1783338291675562500,3.3565625,-0.990325927734375,0.00396728515625,0.0276031494140625
1783338291685534200,3.3665341796875,-0.9908905029296875,0.0052032470703125,0.0279388427734375
1783338291695507200,3.376507080078125,-0.9900360107421875,0.004486083984375,0.02777099609375
1783338291705480400,3.38648046875,-0.9898223876953125,0.0038909912109375,0.0273895263671875
1783338291715452400,3.396452392578125,-0.9910125732421875,0.00439453125,0.0279541015625
1783338291725425200,3.406425048828125,-0.9908905029296875,0.004119873046875,0.0284881591796875
1783338291735398400,3.4163984375,-0.990570068359375,0.0037384033203125,0.0284271240234375
1783338291745370400,3.426370361328125,-0.9905548095703125,0.0048370361328125,0.0276336669921875
1783338291755343400,3.43634326171875,-0.9917449951171875,0.0044097900390625,0.02764892578125
1783338291765316400,3.44631640625,-0.991973876953125,0.0058441162109375,0.0282440185546875
1783338291775288300,3.456288330078125,-0.990386962890625,0.0040130615234375,0.027099609375
1783338291785261300,3.46626123046875,-0.9903564453125,0.00469970703125,0.0270233154296875
1783338291795233300,3.4762333984375,-0.9911651611328125,0.0037994384765625,0.027862548828125
1783338291805206300,3.486206298828125,-0.9918975830078125,0.0037078857421875,0.0277252197265625
1783338291815179300,3.49617919921875,-0.9905853271484375,0.0054168701171875,0.0279083251953125
1783338291825151500,3.5061513671875,-0.9909210205078125,0.00347900390625,0.02850341796875
1783338291835124200,3.516124267578125,-0.9904022216796875,0.002197265625,0.027557373046875
1783338291845097200,3.52609716796875,-0.9896087646484375,0.0045166015625,0.02734375
1783338291855069400,3.5360693359375,-0.9911956787109375,0.004241943359375,0.0279388427734375
1783338291865042400,3.54604248046875,-0.9912261962890625,0.0033416748046875,0.02764892578125
1783338291875014400,3.556014404296875,-0.9921417236328125,0.0041961669921875,0.027130126953125
1783338291884987400,3.5659873046875,-0.9902191162109375,0.004669189453125,0.0281829833984375
1783338291894960400,3.57596044921875,-0.990234375,0.0047607421875,0.02740478515625
1783338291904932400,3.585932373046875,-0.992095947265625,0.0040130615234375,0.028289794921875
1783338291914905300,3.5959052734375,-0.9919281005859375,0.003204345703125,0.0273590087890625
1783338291924878300,3.60587841796875,-0.990509033203125,0.0048675537109375,0.0282745361328125
1783338291934850600,3.6158505859375,-0.9908599853515625,0.004638671875,0.0286865234375
1783338291944823300,3.6258232421875,-0.991302490234375,0.00518798828125,0.0269012451171875
1783338291954795300,3.635795166015625,-0.991546630859375,0.004180908203125,0.0269012451171875
1783338291964768500,3.6457685546875,-0.990692138671875,0.003875732421875,0.02862548828125
1783338291974741500,3.655741455078125,-0.9907989501953125,0.0042572021484375,0.0272674560546875
1783338291984713200,3.665713134765625,-0.9913787841796875,0.0036773681640625,0.0275726318359375
1783338291994686500,3.6756865234375,-0.9911956787109375,0.0039825439453125,0.027557373046875
1783338292004659500,3.685659423828125,-0.990631103515625,0.0050048828125,0.027099609375
1783338292014631200,3.695631103515625,-0.9906005859375,0.0052032470703125,0.0278167724609375
1783338292024604400,3.7056044921875,-0.9913482666015625,0.0053253173828125,0.02685546875
1783338292034576400,3.715576416015625,-0.9903564453125,0.004241943359375,0.0273284912109375
1783338292044549400,3.72554931640625,-0.990509033203125,0.0038299560546875,0.02703857421875
1783338292054522400,3.7355224609375,-0.989837646484375,0.005035400390625,0.0269622802734375
1783338292064494300,3.745494384765625,-0.990753173828125,0.0050048828125,0.0291595458984375
1783338292074467300,3.75546728515625,-0.99090576171875,0.0037841796875,0.027984619140625
1783338292084440300,3.7654404296875,-0.990570068359375,0.004180908203125,0.0268096923828125
1783338292094413000,3.7754130859375,-0.9908447265625,0.0041656494140625,0.027984619140625
1783338292104386000,3.785385986328125,-0.9906463623046875,0.0048980712890625,0.0284881591796875
1783338292114358300,3.795358154296875,-0.991485595703125,0.0042724609375,0.02880859375
1783338292124331000,3.8053310546875,-0.990997314453125,0.0037689208984375,0.0275421142578125
1783338292134304000,3.815303955078125,-0.9904022216796875,0.004058837890625,0.0275421142578125
1783338292144276200,3.825276123046875,-0.990966796875,0.0044403076171875,0.0265960693359375
1783338292154249200,3.835249267578125,-0.9923248291015625,0.0043182373046875,0.0272979736328125
1783338292164222000,3.845221923828125,-0.9901885986328125,0.0043487548828125,0.02752685546875
1783338292174194200,3.855194091796875,-0.9913787841796875,0.002532958984375,0.0277252197265625
1783338292184167200,3.865167236328125,-0.9913177490234375,0.0040283203125,0.0271453857421875
1783338292194139000,3.875138916015625,-0.9910125732421875,0.005096435546875,0.0283660888671875
1783338292204112100,3.885112060546875,-0.99078369140625,0.0045928955078125,0.0280609130859375
1783338292214085000,3.895085205078125,-0.9909820556640625,0.004425048828125,0.0280914306640625
1783338292224057000,3.90505712890625,-0.99224853515625,0.0037994384765625,0.0284271240234375
1783338292234030000,3.915030029296875,-0.991607666015625,0.0037994384765625,0.028289794921875
1783338292244003000,3.925003173828125,-0.9907684326171875,0.0037384033203125,0.0283050537109375
1783338292253975000,3.93497509765625,-0.99029541015625,0.0028533935546875,0.0258941650390625
1783338292263948300,3.9449482421875,-0.990875244140625,0.0040283203125,0.027252197265625
1783338292273920000,3.954919921875,-0.98974609375,0.0039825439453125,0.0272979736328125
1783338292283893000,3.96489306640625,-0.9910430908203125,0.0042877197265625,0.0281829833984375
1783338292293866200,3.9748662109375,-0.99090576171875,0.003509521484375,0.02783203125
1783338292303838000,3.984837890625,-0.9910736083984375,0.00469970703125,0.028076171875
1783338292313811000,3.99481103515625,-0.9921722412109375,0.0047607421875,0.0273590087890625
1783338292323784200,4.0047841796875,-0.9905853271484375,0.0044097900390625,0.0285186767578125
1783338292333756200,4.014756103515625,-0.991119384765625,0.00408935546875,0.0273895263671875
1783338292343729000,4.02472900390625,-0.9897308349609375,0.0046234130859375,0.0283355712890625
1783338292353701000,4.034701171875,-0.991729736328125,0.005340576171875,0.0271148681640625
1783338292363674000,4.044674072265625,-0.991241455078125,0.003753662109375,0.0269317626953125
1783338292373647000,4.054647216796875,-0.9923858642578125,0.0048370361328125,0.0268402099609375
1783338292383619000,4.064619140625,-0.99041748046875,0.0036773681640625,0.0274658203125
1783338292393592000,4.074592041015625,-0.990936279296875,0.0049591064453125,0.02764892578125
1783338292403565000,4.08456494140625,-0.9919281005859375,0.004486083984375,0.0283203125
1783338292413537000,4.094537109375,-0.9908905029296875,0.0045623779296875,0.028411865234375
1783338292423510000,4.104510009765625,-0.9901123046875,0.0042266845703125,0.028289794921875
1783338292433482200,4.114482177734375,-0.9910430908203125,0.0043487548828125,0.0271759033203125
1783338292443455000,4.124455078125,-0.9911956787109375,0.0042266845703125,0.0273895263671875
1783338292453428000,4.134427978515625,-0.9917144775390625,0.003875732421875,0.0272674560546875
1783338292463400200,4.144400146484375,-0.9902801513671875,0.00335693359375,0.0273895263671875
1783338292473373200,4.154373291015625,-0.991607666015625,0.0024871826171875,0.0285491943359375
1783338292483346000,4.164345947265625,-0.9913177490234375,0.0039520263671875,0.02685546875
1783338292493318100,4.174318115234375,-0.9910888671875,0.0037384033203125,0.0267486572265625
1783338292503291100,4.184291015625,-0.9901275634765625,0.0042724609375,0.0278167724609375
1783338292513263000,4.19426318359375,-0.9901580810546875,0.0042724609375,0.0266265869140625
1783338292523236000,4.204236083984375,-0.9909820556640625,0.004425048828125,0.0276031494140625
1783338292533209000,4.214208984375,-0.9908599853515625,0.00341796875,0.027069091796875
1783338292543181000,4.22418115234375,-0.9915924072265625,0.0035247802734375,0.0275726318359375
1783338292553154000,4.234154052734375,-0.9901275634765625,0.00396728515625,0.02764892578125
1783338292563127000,4.244126953125,-0.989166259765625,0.0055999755859375,0.0280609130859375
1783338292573099300,4.254099365234375,-0.9907379150390625,0.0041961669921875,0.02777099609375
1783338292583072300,4.264072265625,-0.99139404296875,0.0057525634765625,0.02874755859375
1783338292593044000,4.2740439453125,-0.9918975830078125,0.005157470703125,0.0279083251953125
1783338292603017200,4.284017333984375,-0.9896392822265625,0.0036773681640625,0.0282745361328125
1783338292612990200,4.293990234375,-0.9909210205078125,0.0042572021484375,0.028900146484375
1783338292622962000,4.3039619140625,-0.991546630859375,0.0042877197265625,0.0289306640625
1783338292632935200,4.31393505859375,-0.9912261962890625,0.004302978515625,0.027587890625
1783338292642908200,4.323908203125,-0.99139404296875,0.0047149658203125,0.02734375
1783338292652880100,4.333880126953125,-0.992401123046875,0.0042572021484375,0.0281982421875
1783338292662853000,4.34385302734375,-0.99163818359375,0.0061798095703125,0.0274200439453125
1783338292672825000,4.3538251953125,-0.9904632568359375,0.004486083984375,0.02667236328125
1783338292682798000,4.363798095703125,-0.990936279296875,0.003265380859375,0.028167724609375
1783338292692771000,4.37377099609375,-0.9910736083984375,0.0028076171875,0.02813720703125
1783338292702743000,4.383742919921875,-0.9910736083984375,0.0041656494140625,0.0284881591796875
1783338292712716000,4.393716064453125,-0.9911041259765625,0.0045318603515625,0.0279541015625
1783338292722689000,4.40368896484375,-0.99029541015625,0.0043792724609375,0.0269775390625
1783338292732661000,4.413660888671875,-0.9904327392578125,0.0053253173828125,0.026824951171875
1783338292742634000,4.423634033203125,-0.993011474609375,0.0043792724609375,0.0281524658203125
1783338292752606200,4.433606201171875,-0.9914093017578125,0.0041656494140625,0.027191162109375
1783338292762579200,4.4435791015625,-0.9901123046875,0.0047149658203125,0.0287628173828125
1783338292772552000,4.453552001953125,-0.9909820556640625,0.003143310546875,0.0279388427734375
1783338292782524200,4.463524169921875,-0.991302490234375,0.0043792724609375,0.027801513671875
1783338292792497200,4.4734970703125,-0.991851806640625,0.0047760009765625,0.0264892578125
1783338292802470100,4.48347021484375,-0.99017333984375,0.0035400390625,0.02752685546875
1783338292812442000,4.493442138671875,-0.9921417236328125,0.004058837890625,0.0279083251953125
1783338292822415000,4.5034150390625,-0.9907684326171875,0.004119873046875,0.02777099609375
1783338292832387300,4.51338720703125,-0.9907073974609375,0.004150390625,0.0275421142578125
1783338292842360000,4.523360107421875,-0.99005126953125,0.00299072265625,0.0263519287109375
1783338292852333000,4.5333330078125,-0.990386962890625,0.003204345703125,0.02874755859375
1783338292862305300,4.54330517578125,-0.9910430908203125,0.0051727294921875,0.0295257568359375
1783338292872278300,4.5532783203125,-0.9897918701171875,0.0044708251953125,0.0277252197265625
1783338292882251000,4.5632509765625,-0.990875244140625,0.0040740966796875,0.02752685546875
1783338292892223200,4.57322314453125,-0.9911041259765625,0.004180908203125,0.0263671875
1783338292902196200,4.5831962890625,-0.99212646484375,0.0050811767578125,0.027618408203125
1783338292912168000,4.59316796875,-0.990753173828125,0.0041656494140625,0.028289794921875
1783338292922141200,4.60314111328125,-0.9894561767578125,0.004669189453125,0.0284423828125
1783338292932114200,4.6131142578125,-0.991302490234375,0.00408935546875,0.02789306640625
1783338292942086000,4.6230859375,-0.9904632568359375,0.0041046142578125,0.0279388427734375
1783338292952059100,4.63305908203125,-0.990692138671875,0.0032958984375,0.02801513671875
1783338292962031000,4.643031005859375,-0.99066162109375,0.00482177734375,0.0289306640625
1783338292972004000,4.653004150390625,-0.990692138671875,0.0050811767578125,0.027008056640625
1783338292981977000,4.66297705078125,-0.992401123046875,0.0053863525390625,0.0273895263671875
1783338292991949000,4.672948974609375,-0.9911956787109375,0.004669189453125,0.0277862548828125
1783338293001922000,4.682922119140625,-0.990875244140625,0.003570556640625,0.029205322265625
1783338293011895300,4.692895263671875,-0.990264892578125,0.0044403076171875,0.0289306640625
1783338293021867000,4.702866943359375,-0.992156982421875,0.0050811767578125,0.0271759033203125
1783338293031840000,4.712840087890625,-0.9911651611328125,0.00445556640625,0.027801513671875
1783338293041812200,4.722812255859375,-0.99041748046875,0.0052490234375,0.0283050537109375
1783338293051785000,4.732784912109375,-0.9904327392578125,0.00518798828125,0.0272216796875
1783338293061758000,4.742758056640625,-0.9896240234375,0.00469970703125,0.0280914306640625
1783338293071730200,4.752730224609375,-0.991302490234375,0.0051422119140625,0.0265045166015625
1783338293081703200,4.762703125,-0.9912261962890625,0.0049896240234375,0.027618408203125
1783338293091675400,4.77267529296875,-0.9912872314453125,0.0046844482421875,0.0271453857421875
1783338293101647600,4.782647705078125,-0.991943359375,0.0049896240234375,0.027313232421875
1783338293111620600,4.79262060546875,-0.9910125732421875,0.0051422119140625,0.026947021484375
1783338293121592600,4.802592529296875,-0.9904327392578125,0.00457763671875,0.02777099609375
1783338293131565600,4.812565673828125,-0.9910430908203125,0.00537109375,0.0273284912109375
1783338293141538600,4.82253857421875,-0.99066162109375,0.004852294921875,0.02813720703125
1783338293151510800,4.8325107421875,-0.991180419921875,0.0047149658203125,0.027435302734375
1783338293161483500,4.8424833984375,-0.9900054931640625,0.0041656494140625,0.0284881591796875
1783338293171456500,4.85245654296875,-0.9898834228515625,0.0045318603515625,0.0271148681640625
1783338293181428700,4.8624287109375,-0.9899444580078125,0.00390625,0.027313232421875
1783338293191401500,4.8724013671875,-0.990753173828125,0.0047607421875,0.0284271240234375
1783338293201373700,4.882373779296875,-0.9911041259765625,0.005859375,0.0287017822265625
1783338293211346700,4.8923466796875,-0.9901580810546875,0.0041656494140625,0.02703857421875
1783338293221319700,4.902319580078125,-0.9905548095703125,0.0040283203125,0.0285797119140625
1783338293231291600,4.912291748046875,-0.9908294677734375,0.00384521484375,0.0271148681640625
1783338293241264600,4.9222646484375,-0.9901275634765625,0.006011962890625,0.02752685546875
1783338293251237600,4.932237548828125,-0.9911346435546875,0.0047607421875,0.028717041015625
1783338293261209600,4.942209716796875,-0.9906463623046875,0.004852294921875,0.0280303955078125
1783338293271182600,4.9521826171875,-0.9905242919921875,0.00390625,0.0266265869140625
1783338293281154600,4.962154541015625,-0.9902191162109375,0.0035400390625,0.027099609375
1783338293291127800,4.9721279296875,-0.9906005859375,0.0031280517578125,0.0274505615234375
1783338293301100500,4.9821005859375,-0.9893035888671875,0.00390625,0.0271759033203125
1783338293311072500,4.992072509765625,-0.9896697998046875,0.004241943359375,0.027099609375
1783338293321045800,5.002045654296875,-0.99139404296875,0.0044708251953125,0.028900146484375
1783338293331017500,5.012017578125,-0.99072265625,0.0051422119140625,0.0280609130859375
1783338293340990500,5.021990478515625,-0.990203857421875,0.00421142578125,0.0285797119140625
1783338293350963700,5.031963623046875,-0.990234375,0.003631591796875,0.0276336669921875
1783338293360935700,5.041935791015625,-0.9907989501953125,0.00537109375,0.0278778076171875
1783338293370908400,5.051908447265625,-0.9914398193359375,0.00469970703125,0.026702880859375
1783338293380881700,5.061881591796875,-0.990753173828125,0.003875732421875,0.0269012451171875
1783338293390853600,5.071853515625,-0.9915008544921875,0.0044403076171875,0.0276947021484375
1783338293400826600,5.08182666015625,-0.9907684326171875,0.0045928955078125,0.0273284912109375
1783338293410798600,5.091798583984375,-0.9914398193359375,0.00384521484375,0.0269317626953125
1783338293420771600,5.101771484375,-0.9918670654296875,0.00274658203125,0.028167724609375
1783338293430744600,5.11174462890625,-0.9914703369140625,0.0051422119140625,0.0267791748046875
1783338293440716500,5.121716552734375,-0.9910125732421875,0.003875732421875,0.026702880859375
1783338293450689500,5.131689453125,-0.990631103515625,0.0033416748046875,0.028656005859375
1783338293460662500,5.14166259765625,-0.9908447265625,0.0046844482421875,0.0275115966796875
1783338293470634800,5.151634765625,-0.9913482666015625,0.0056304931640625,0.0272979736328125
1783338293480607500,5.161607421875,-0.9903717041015625,0.005157470703125,0.0281524658203125
1783338293490579700,5.171579833984375,-0.99114990234375,0.0055694580078125,0.0284881591796875
1783338293500552700,5.181552734375,-0.9898834228515625,0.003448486328125,0.02825927734375
1783338293510525700,5.191525634765625,-0.9908905029296875,0.0029449462890625,0.0265655517578125
1783338293520497700,5.20149755859375,-0.99017333984375,0.0035247802734375,0.0269927978515625
1783338293530470700,5.211470703125,-0.9912872314453125,0.002197265625,0.0284423828125
1783338293540442600,5.221442626953125,-0.9908905029296875,0.0040435791015625,0.0277252197265625
1783338293550415600,5.23141552734375,-0.991455078125,0.0038299560546875,0.02740478515625
1783338293560388600,5.241388671875,-0.9910888671875,0.00347900390625,0.0290679931640625
1783338293570360600,5.251360595703125,-0.9911651611328125,0.004730224609375,0.0273590087890625
1783338293580333800,5.261333740234375,-0.9914398193359375,0.004302978515625,0.0279693603515625
1783338293590306600,5.271306640625,-0.9915618896484375,0.003997802734375,0.027801513671875
1783338293600278500,5.281278564453125,-0.9903564453125,0.0053253173828125,0.0274200439453125
1783338293610251800,5.291251708984375,-0.9917755126953125,0.003326416015625,0.0273284912109375
1783338293620223500,5.301223388671875,-0.9907684326171875,0.0049285888671875,0.027130126953125
1783338293630196500,5.311196533203125,-0.990753173828125,0.00439453125,0.028289794921875
1783338293640169700,5.321169677734375,-0.9912109375,0.0039520263671875,0.02764892578125
1783338293650142700,5.331142822265625,-0.990692138671875,0.0035858154296875,0.0285797119140625
1783338293660114400,5.341114501953125,-0.9917755126953125,0.0064239501953125,0.0243072509765625
1783338293670087700,5.351087646484375,-0.99102783203125,0.005462646484375,0.027435302734375
1783338293680059600,5.3610595703125,-0.9914398193359375,0.00439453125,0.02923583984375
1783338293690032400,5.371032470703125,-0.9888763427734375,0.003448486328125,0.0274658203125
1783338293700005600,5.381005615234375,-0.9917144775390625,0.005401611328125,0.028228759765625
1783338293709977600,5.3909775390625,-0.991973876953125,0.0027008056640625,0.029754638671875
1783338293719950600,5.40095068359375,-0.9918365478515625,0.00347900390625,0.0276947021484375
1783338293729923600,5.410923583984375,-0.9901123046875,0.0046234130859375,0.025299072265625
1783338293739895600,5.4208955078125,-0.9901885986328125,0.0058441162109375,0.028350830078125
1783338293749868500,5.43086865234375,-0.989593505859375,0.00360107421875,0.0272064208984375
1783338293759840500,5.440840576171875,-0.9908905029296875,0.00482177734375,0.0270843505859375
1783338293769813500,5.4508134765625,-0.989532470703125,0.0043487548828125,0.0279083251953125
1783338293779786500,5.460786376953125,-0.9920806884765625,0.004974365234375,0.0292816162109375
1783338293789758700,5.4707587890625,-0.9904632568359375,0.003387451171875,0.0281524658203125
1783338293799731500,5.4807314453125,-0.9929962158203125,0.00408935546875,0.028656005859375
1783338293809703700,5.49070361328125,-0.99163818359375,0.0043182373046875,0.0293121337890625
1783338293819676700,5.5006767578125,-0.9901885986328125,0.0053863525390625,0.029052734375
1783338293829649700,5.510649658203125,-0.99078369140625,0.0045318603515625,0.0290679931640625
1783338293839621600,5.52062158203125,-0.9921875,0.0035858154296875,0.026123046875
1783338293849594600,5.5305947265625,-0.991790771484375,0.0040740966796875,0.02642822265625
1783338293859567600,5.540567626953125,-0.9890289306640625,0.003448486328125,0.02716064453125
1783338293869539600,5.55053955078125,-0.9906005859375,0.004913330078125,0.0276641845703125
1783338293879512600,5.5605126953125,-0.989105224609375,0.006011962890625,0.025634765625
1783338293889484500,5.570484619140625,-0.990814208984375,0.0037078857421875,0.0291748046875
1783338293899457800,5.580457763671875,-0.991241455078125,0.004119873046875,0.0289306640625
1783338293909430500,5.590430419921875,-0.990875244140625,0.00408935546875,0.0279998779296875
1783338293919402500,5.600402587890625,-0.991790771484375,0.0035552978515625,0.026947021484375
1783338293929375700,5.610375732421875,-0.990997314453125,0.003936767578125,0.0273895263671875
1783338293939347500,5.620347412109375,-0.9895782470703125,0.0047760009765625,0.0275421142578125
1783338293949320400,5.630320556640625,-0.990020751953125,0.003387451171875,0.0254058837890625
1783338293959293700,5.640293701171875,-0.990509033203125,0.0026397705078125,0.02850341796875
1783338293969265700,5.650265625,-0.990081787109375,0.005157470703125,0.0272216796875
1783338293979238400,5.66023828125,-0.988616943359375,0.0059356689453125,0.0267181396484375
1783338293989211600,5.670211669921875,-0.9918060302734375,0.0059661865234375,0.02777099609375
1783338293999183600,5.68018359375,-0.9887237548828125,0.00335693359375,0.02716064453125
1783338294009156600,5.690156494140625,-0.991058349609375,0.0047760009765625,0.0276641845703125
1783338294019128600,5.700128662109375,-0.989837646484375,0.0037689208984375,0.0284271240234375
1783338294029101600,5.7101015625,-0.9908447265625,0.0052337646484375,0.0283203125
1783338294039073800,5.72007373046875,-0.990692138671875,0.0048065185546875,0.0280914306640625
1783338294049046500,5.730046630859375,-0.989959716796875,0.004180908203125,0.02764892578125
1783338294059019500,5.74001953125,-0.9910430908203125,0.00347900390625,0.0267486572265625
1783338294068991700,5.74999169921875,-0.9900665283203125,0.003631591796875,0.0272064208984375
1783338294078964700,5.75996484375,-0.9908905029296875,0.0045166015625,0.0282745361328125
1783338294088936400,5.7699365234375,-0.99139404296875,0.003631591796875,0.0276031494140625
1783338294098910000,5.779909912109375,-0.989654541015625,0.0043182373046875,0.027557373046875
1783338294108883000,5.789883056640625,-0.990386962890625,0.004425048828125,0.0272216796875
1783338294118855000,5.79985498046875,-0.99163818359375,0.00396728515625,0.027740478515625
1783338294128828200,5.809828125,-0.990386962890625,0.0045318603515625,0.027374267578125
1783338294138801000,5.81980078125,-0.990936279296875,0.004852294921875,0.02734375
1783338294148772900,5.82977294921875,-0.9915618896484375,0.00531005859375,0.028045654296875
1783338294158746000,5.83974609375,-0.991790771484375,0.004364013671875,0.027069091796875
1783338294168717800,5.8497177734375,-0.990509033203125,0.00299072265625,0.0284271240234375
1783338294178690800,5.85969091796875,-0.99072265625,0.0052947998046875,0.027923583984375
1783338294188664000,5.8696640625,-0.991180419921875,0.004486083984375,0.0270233154296875
1783338294198636000,5.879635986328125,-0.9913330078125,0.0030059814453125,0.029327392578125
1783338294208608800,5.88960888671875,-0.9903106689453125,0.0044708251953125,0.02734375
1783338294218581000,5.8995810546875,-0.9903564453125,0.004486083984375,0.02728271484375
1783338294228554000,5.909553955078125,-0.9915008544921875,0.0038604736328125,0.027496337890625
1783338294238527000,5.91952685546875,-0.99072265625,0.0057220458984375,0.0268402099609375
1783338294248499000,5.9294990234375,-0.9903411865234375,0.002655029296875,0.0279998779296875
1783338294258472000,5.939471923828125,-0.9897003173828125,0.004730224609375,0.0281829833984375
1783338294268445000,5.94944482421875,-0.99041748046875,0.004486083984375,0.0283050537109375
1783338294278417000,5.9594169921875,-0.9912567138671875,0.003692626953125,0.027740478515625
1783338294288390000,5.969389892578125,-0.99090576171875,0.00360107421875,0.029083251953125
1783338294298362000,5.979362060546875,-0.9908447265625,0.0045013427734375,0.02783203125
1783338294308335000,5.989335205078125,-0.9907379150390625,0.006439208984375,0.0278778076171875
1783338294318307800,5.999307861328125,-0.9918975830078125,0.004791259765625,0.02764892578125
1783338294328280000,6.009280029296875,-0.9898223876953125,0.004150390625,0.0282135009765625
1783338294338253000,6.019253173828125,-0.9897308349609375,0.0051727294921875,0.0282745361328125
1783338294348224800,6.029224853515625,-0.991546630859375,0.0048370361328125,0.02691650390625
1783338294358198000,6.039197998046875,-0.99127197265625,0.0051422119140625,0.028594970703125
1783338294368171000,6.0491708984375,-0.9910125732421875,0.00335693359375,0.0287017822265625
1783338294378143000,6.05914306640625,-0.990936279296875,0.003875732421875,0.0281524658203125
1783338294388116000,6.069115966796875,-0.99114990234375,0.00384521484375,0.0283050537109375
1783338294398089000,6.0790888671875,-0.9901580810546875,0.00384521484375,0.0262908935546875
1783338294408061000,6.08906103515625,-0.9909515380859375,0.0037078857421875,0.02740478515625
1783338294418034200,6.0990341796875,-0.990936279296875,0.0050048828125,0.026702880859375
1783338294428006000,6.109005859375,-0.990936279296875,0.0033416748046875,0.027069091796875
1783338294437979000,6.118978759765625,-0.9904632568359375,0.0038909912109375,0.028564453125
1783338294447952100,6.1289521484375,-0.9897613525390625,0.0037994384765625,0.026763916015625
1783338294457923800,6.138923828125,-0.9901885986328125,0.0034637451171875,0.02838134765625
1783338294467896800,6.148896728515625,-0.9900970458984375,0.0047149658203125,0.0285186767578125
1783338294477869000,6.158869140625,-0.9915618896484375,0.0039520263671875,0.0275726318359375
1783338294487842000,6.168842041015625,-0.9910736083984375,0.0028076171875,0.0272979736328125
1783338294497814800,6.178814697265625,-0.989990234375,0.0050201416015625,0.0276641845703125
1783338294507787000,6.188787109375,-0.9904327392578125,0.0035552978515625,0.0270843505859375
1783338294517760000,6.198760009765625,-0.9909515380859375,0.003936767578125,0.027587890625
1783338294527733000,6.20873291015625,-0.990570068359375,0.00494384765625,0.0278167724609375
1783338294537705000,6.218705078125,-0.9900360107421875,0.004669189453125,0.026611328125
1783338294547678000,6.228677978515625,-0.98968505859375,0.0039520263671875,0.0276336669921875
1783338294557650200,6.238650146484375,-0.9899749755859375,0.00390625,0.02734375
1783338294567623000,6.248622802734375,-0.990478515625,0.004364013671875,0.0276641845703125
1783338294577596000,6.258595947265625,-0.990966796875,0.003265380859375,0.027740478515625
1783338294587568000,6.268568115234375,-0.99041748046875,0.004302978515625,0.0275421142578125
1783338294597540900,6.278540771484375,-0.9911346435546875,0.004638671875,0.02850341796875
1783338294607512800,6.288512939453125,-0.99029541015625,0.0056610107421875,0.0263671875
1783338294617486000,6.298486083984375,-0.9895477294921875,0.0040740966796875,0.026519775390625
1783338294627459000,6.308458984375,-0.9901580810546875,0.0032806396484375,0.0272064208984375
1783338294637430800,6.3184306640625,-0.990966796875,0.0046539306640625,0.0276947021484375
1783338294647404000,6.328404052734375,-0.9921417236328125,0.0039215087890625,0.0277252197265625
1783338294657376000,6.3383759765625,-0.9898223876953125,0.0048980712890625,0.0283966064453125
1783338294667348700,6.3483486328125,-0.9910888671875,0.004364013671875,0.026519775390625
1783338294677322000,6.358322021484375,-0.992340087890625,0.0051727294921875,0.0280609130859375
1783338294687294000,6.3682939453125,-0.990509033203125,0.0047607421875,0.027618408203125
1783338294697267000,6.378266845703125,-0.991912841796875,0.005035400390625,0.0272216796875
1783338294707240000,6.388239990234375,-0.990020751953125,0.004913330078125,0.028656005859375
1783338294717212000,6.3982119140625,-0.9893646240234375,0.0046844482421875,0.0294036865234375
1783338294727185000,6.408184814453125,-0.989715576171875,0.0038909912109375,0.02685546875
1783338294737156900,6.418156982421875,-0.9892425537109375,0.0041961669921875,0.0270843505859375
1783338294747129900,6.4281298828125,-0.992156982421875,0.004058837890625,0.0288848876953125
1783338294757102800,6.438102783203125,-0.990264892578125,0.0047454833984375,0.026336669921875
1783338294767075000,6.448074951171875,-0.9910736083984375,0.0048675537109375,0.0289459228515625
1783338294777047800,6.4580478515625,-0.991424560546875,0.0045928955078125,0.0283355712890625
1783338294787020000,6.46802001953125,-0.990692138671875,0.005859375,0.027587890625
1783338294796993000,6.477992919921875,-0.990478515625,0.00439453125,0.0276336669921875
1783338294806966000,6.487966064453125,-0.9902496337890625,0.004791259765625,0.0281982421875
1783338294816938000,6.49793798828125,-0.9906463623046875,0.005279541015625,0.0279541015625
1783338294826911000,6.507910888671875,-0.9907379150390625,0.004791259765625,0.02728271484375
1783338294836884000,6.517884033203125,-0.9908447265625,0.0042572021484375,0.0275115966796875
1783338294846856000,6.52785595703125,-0.990692138671875,0.004364013671875,0.0276947021484375
1783338294856829000,6.537828857421875,-0.989654541015625,0.005035400390625,0.028533935546875
1783338294866801000,6.54780078125,-0.9925384521484375,0.003204345703125,0.0286712646484375
1783338294876774100,6.557774169921875,-0.9903411865234375,0.0050201416015625,0.027862548828125
1783338294886747000,6.567746826171875,-0.991363525390625,0.0053863525390625,0.028656005859375
1783338294896719000,6.577718994140625,-0.9908294677734375,0.0033416748046875,0.02685546875
1783338294906692000,6.587692138671875,-0.990478515625,0.0050506591796875,0.0279388427734375
1783338294916663800,6.597663818359375,-0.98968505859375,0.00445556640625,0.027587890625
1783338294926637000,6.607636962890625,-0.9911041259765625,0.0037078857421875,0.0279083251953125
1783338294936610000,6.617610107421875,-0.990936279296875,0.0043182373046875,0.0288848876953125
1783338294946582000,6.62758203125,-0.989410400390625,0.0037841796875,0.028228759765625
1783338294956555000,6.637554931640625,-0.9916229248046875,0.003509521484375,0.0283355712890625
1783338294966527000,6.64752685546875,-0.9914093017578125,0.0035400390625,0.0277557373046875
1783338294976500000,6.6575,-0.9897308349609375,0.00469970703125,0.027130126953125
1783338294986473000,6.667472900390625,-0.990997314453125,0.00445556640625,0.0287628173828125
1783338294996445000,6.67744482421875,-0.99072265625,0.003265380859375,0.0296478271484375
1783338295006418000,6.68741796875,-0.990447998046875,0.0041046142578125,0.026092529296875
1783338295016391000,6.697390869140625,-0.991119384765625,0.0045166015625,0.0285797119140625
1783338295026363000,6.70736279296875,-0.99114990234375,0.00531005859375,0.0282440185546875
1783338295036335900,6.7173359375,-0.9905242919921875,0.0045623779296875,0.0283355712890625
1783338295046308000,6.72730810546875,-0.990997314453125,0.0050048828125,0.027984619140625
1783338295056281000,6.737281005859375,-0.9915771484375,0.0036468505859375,0.0275421142578125
1783338295066253800,6.74725390625,-0.992950439453125,0.004241943359375,0.0277252197265625
1783338295076226000,6.75722607421875,-0.9896392822265625,0.005218505859375,0.0279083251953125
1783338295086199000,6.767198974609375,-0.990814208984375,0.00469970703125,0.027191162109375
1783338295096170500,6.77717041015625,-0.9903106689453125,0.0041046142578125,0.028228759765625
1783338295106143500,6.7871435546875,-0.9914093017578125,0.00469970703125,0.027130126953125
1783338295116116500,6.797116455078125,-0.9902801513671875,0.0045318603515625,0.0274200439453125
1783338295126088400,6.80708837890625,-0.9904937744140625,0.0037841796875,0.0286712646484375
1783338295136061400,6.8170615234375,-0.990264892578125,0.0040740966796875,0.0274505615234375
1783338295146034400,6.827034423828125,-0.9905853271484375,0.0038909912109375,0.02716064453125
1783338295156006700,6.837006591796875,-0.99102783203125,0.00347900390625,0.0284881591796875
1783338295165979400,6.8469794921875,-0.990814208984375,0.0033416748046875,0.0276031494140625
1783338295175951400,6.856951416015625,-0.9902191162109375,0.0043182373046875,0.02716064453125
1783338295185924600,6.866924560546875,-0.9915008544921875,0.004730224609375,0.0266265869140625
1783338295195897600,6.876897705078125,-0.9912567138671875,0.003448486328125,0.0268402099609375
1783338295205869300,6.886869384765625,-0.989501953125,0.00494384765625,0.027252197265625
1783338295215842600,6.896842529296875,-0.990814208984375,0.0050811767578125,0.0272216796875
1783338295225814500,6.906814453125,-0.9926300048828125,0.003326416015625,0.0285491943359375
1783338295235787300,6.916787353515625,-0.9902191162109375,0.00421142578125,0.02874755859375
1783338295245760500,6.926760498046875,-0.990997314453125,0.00421142578125,0.028564453125
1783338295255732500,6.936732421875,-0.99072265625,0.00274658203125,0.02838134765625
1783338295265705500,6.94670556640625,-0.990692138671875,0.003265380859375,0.02813720703125
1783338295275678500,6.956678466796875,-0.9903564453125,0.0047149658203125,0.027862548828125
1783338295285650400,6.966650390625,-0.990264892578125,0.0040283203125,0.0276336669921875
1783338295295623400,6.97662353515625,-0.9911651611328125,0.0039825439453125,0.0265655517578125
1783338295305595400,6.986595458984375,-0.990570068359375,0.00408935546875,0.0276641845703125
1783338295315568400,6.996568359375,-0.9897918701171875,0.0041351318359375,0.0269012451171875
1783338295325541400,7.006541259765625,-0.990478515625,0.0030975341796875,0.0275726318359375
1783338295335513600,7.016513671875,-0.9906158447265625,0.00445556640625,0.0278167724609375
1783338295345486300,7.026486328125,-0.990692138671875,0.0053863525390625,0.02740478515625
1783338295355458600,7.03645849609375,-0.991668701171875,0.0046234130859375,0.0268096923828125
1783338295365431600,7.046431640625,-0.9890899658203125,0.0043182373046875,0.02716064453125
1783338295375404300,7.056404296875,-0.990570068359375,0.004425048828125,0.0281219482421875
1783338295385376500,7.06637646484375,-0.9919891357421875,0.0044097900390625,0.0278472900390625
1783338295395349500,7.076349609375,-0.990814208984375,0.0035552978515625,0.0266265869140625
1783338295405321500,7.086321533203125,-0.9906768798828125,0.003753662109375,0.027008056640625
1783338295415294500,7.09629443359375,-0.9908599853515625,0.00408935546875,0.027923583984375
1783338295425267500,7.106267333984375,-0.9904937744140625,0.0034027099609375,0.026947021484375
1783338295435239700,7.11623974609375,-0.9912109375,0.0050201416015625,0.02813720703125
1783338295445212400,7.12621240234375,-0.992340087890625,0.0054779052734375,0.028656005859375
1783338295455185400,7.136185302734375,-0.99090576171875,0.003448486328125,0.02874755859375
1783338295465157600,7.14615771484375,-0.9911651611328125,0.0032806396484375,0.028594970703125
1783338295475130600,7.156130615234375,-0.989166259765625,0.00347900390625,0.0270538330078125
1783338295485102300,7.166102294921875,-0.991180419921875,0.0044097900390625,0.0276641845703125
1783338295495075600,7.17607568359375,-0.991241455078125,0.0050201416015625,0.0287628173828125
1783338295505048600,7.186048583984375,-0.9902191162109375,0.0050201416015625,0.0269927978515625
1783338295515020300,7.196020263671875,-0.9912109375,0.00457763671875,0.0291290283203125
1783338295524993500,7.20599365234375,-0.9916839599609375,0.0031890869140625,0.0285186767578125
1783338295534965500,7.215965576171875,-0.99066162109375,0.0050048828125,0.0277099609375
1783338295544938500,7.2259384765625,-0.990631103515625,0.0054931640625,0.0280609130859375
1783338295554911500,7.235911376953125,-0.991241455078125,0.0039825439453125,0.027435302734375
1783338295564883500,7.245883544921875,-0.9893798828125,0.004730224609375,0.0276641845703125
1783338295574856400,7.2558564453125,-0.9912567138671875,0.0046539306640625,0.026947021484375
1783338295584829700,7.26582958984375,-0.9913177490234375,0.0040130615234375,0.0282135009765625
1783338295594801400,7.275801513671875,-0.989837646484375,0.0040283203125,0.0284423828125
1783338295604774400,7.2857744140625,-0.989501953125,0.0048370361328125,0.0274658203125
1783338295614746600,7.29574658203125,-0.99041748046875,0.0037689208984375,0.0263519287109375
1783338295624719400,7.30571923828125,-0.9918365478515625,0.0036163330078125,0.0273895263671875
1783338295634692400,7.3156923828125,-0.9913482666015625,0.0059051513671875,0.027252197265625
1783338295644664600,7.32566455078125,-0.991058349609375,0.00494384765625,0.027740478515625
1783338295654637600,7.335637451171875,-0.9901885986328125,0.005035400390625,0.0284271240234375
1783338295664609500,7.345609619140625,-0.989959716796875,0.0049591064453125,0.02685546875
1783338295674582500,7.35558251953125,-0.9903106689453125,0.0029449462890625,0.02728271484375
1783338295684555500,7.365555419921875,-0.9916839599609375,0.0036773681640625,0.0289154052734375
1783338295694527500,7.375527587890625,-0.9900665283203125,0.0035858154296875,0.0279998779296875
1783338295704500500,7.38550048828125,-0.9912567138671875,0.0025177001953125,0.027587890625
1783338295714472400,7.395472412109375,-0.989776611328125,0.004302978515625,0.0276336669921875
1783338295724445700,7.40544580078125,-0.9913787841796875,0.0037994384765625,0.0278167724609375
1783338295734418400,7.41541845703125,-0.9901275634765625,0.003753662109375,0.0274505615234375
1783338295744390400,7.425390380859375,-0.99041748046875,0.0037689208984375,0.02777099609375
1783338295754363600,7.43536376953125,-0.9910888671875,0.0052947998046875,0.0291290283203125
1783338295764336600,7.445336669921875,-0.9909515380859375,0.0049591064453125,0.0278472900390625
1783338295774308400,7.455308349609375,-0.9915924072265625,0.0038909912109375,0.0268707275390625
1783338295784281600,7.465281494140625,-0.9920654296875,0.0032806396484375,0.027862548828125
1783338295794253600,7.475253662109375,-0.98992919921875,0.003692626953125,0.026885986328125
1783338295804226300,7.485226318359375,-0.991302490234375,0.005462646484375,0.0270538330078125
1783338295814199600,7.495199462890625,-0.991455078125,0.005157470703125,0.02801513671875
1783338295824171500,7.505171630859375,-0.9922637939453125,0.0045318603515625,0.027130126953125
1783338295834144500,7.51514453125,-0.9906158447265625,0.0032501220703125,0.0279998779296875
1783338295844116500,7.525116455078125,-0.9896240234375,0.004974365234375,0.028717041015625
1783338295854089500,7.53508935546875,-0.9911041259765625,0.004119873046875,0.027984619140625
1783338295864062500,7.5450625,-0.989593505859375,0.0058746337890625,0.027923583984375
1783338295874034400,7.555034423828125,-0.990447998046875,0.0048828125,0.0283203125
1783338295884007400,7.56500732421875,-0.990631103515625,0.0056610107421875,0.02734375
1783338295893980400,7.57498046875,-0.99053955078125,0.0043182373046875,0.0264892578125
1783338295903952400,7.584952392578125,-0.9912261962890625,0.00445556640625,0.0264434814453125
1783338295913925400,7.59492529296875,-0.9895782470703125,0.005767822265625,0.02813720703125
1783338295923897600,7.604897705078125,-0.990570068359375,0.003631591796875,0.0289306640625
1783338295933870600,7.61487060546875,-0.9908599853515625,0.0043792724609375,0.0275726318359375
1783338295943843300,7.62484326171875,-0.99139404296875,0.00482177734375,0.028106689453125
1783338295953815600,7.634815673828125,-0.9913787841796875,0.0051422119140625,0.0277557373046875
1783338295963788500,7.64478857421875,-0.990264892578125,0.0045318603515625,0.02679443359375
1783338295973760300,7.65476025390625,-0.9911651611328125,0.003936767578125,0.0277557373046875
1783338295983733500,7.6647333984375,-0.991851806640625,0.0040740966796875,0.028289794921875
1783338295993706500,7.67470654296875,-0.9912567138671875,0.004486083984375,0.0274810791015625
1783338296003678500,7.684678466796875,-0.9903411865234375,0.003936767578125,0.027496337890625
1783338296013651500,7.6946513671875,-0.9905548095703125,0.0043792724609375,0.0273590087890625
1783338296023624400,7.70462451171875,-0.991485595703125,0.0044708251953125,0.0276336669921875
1783338296033596400,7.714596435546875,-0.9911346435546875,0.004486083984375,0.0283050537109375
1783338296043569700,7.724569580078125,-0.991058349609375,0.0038299560546875,0.0281524658203125
1783338296053541400,7.734541259765625,-0.99053955078125,0.004547119140625,0.02740478515625
1783338296063514400,7.744514404296875,-0.9897613525390625,0.0043792724609375,0.0281982421875
1783338296073487600,7.754487548828125,-0.9917144775390625,0.0035552978515625,0.0286407470703125
1783338296083459300,7.764459228515625,-0.991546630859375,0.0047607421875,0.0277099609375
1783338296093432600,7.7744326171875,-0.989715576171875,0.0039825439453125,0.0283050537109375
1783338296103404500,7.784404541015625,-0.9909210205078125,0.004486083984375,0.027069091796875
1783338296113377500,7.79437744140625,-0.991119384765625,0.0047454833984375,0.0283050537109375
1783338296123350500,7.8043505859375,-0.9904327392578125,0.005340576171875,0.0276641845703125
1783338296133322800,7.81432275390625,-0.9912567138671875,0.0041046142578125,0.027313232421875
1783338296143295500,7.82429541015625,-0.991485595703125,0.0038604736328125,0.027252197265625
1783338296153267700,7.834267822265625,-0.9907684326171875,0.0036163330078125,0.0282440185546875
1783338296163240700,7.84424072265625,-0.99151611328125,0.004180908203125,0.0276031494140625
1783338296173213700,7.854213623046875,-0.9902496337890625,0.00433349609375,0.0271148681640625
1783338296183185700,7.864185546875,-0.9891815185546875,0.00421142578125,0.027374267578125
1783338296193158700,7.87415869140625,-0.99188232421875,0.0043487548828125,0.0268096923828125
1783338296203131600,7.884131591796875,-0.991119384765625,0.0033416748046875,0.02935791015625
1783338296213103600,7.894103515625,-0.9907073974609375,0.004669189453125,0.028564453125
1783338296223076600,7.90407666015625,-0.9907379150390625,0.004302978515625,0.0278778076171875
1783338296233048600,7.914048583984375,-0.9903717041015625,0.00384521484375,0.028472900390625
1783338296243021800,7.924021728515625,-0.990997314453125,0.00445556640625,0.028839111328125
1783338296252994600,7.93399462890625,-0.9906463623046875,0.003997802734375,0.0269622802734375
1783338296262966500,7.943966552734375,-0.9921417236328125,0.0036468505859375,0.0279693603515625
1783338296272939800,7.953939697265625,-0.989837646484375,0.00457763671875,0.028411865234375
1783338296282911500,7.963911376953125,-0.9904022216796875,0.0043487548828125,0.0282135009765625
1783338296292884500,7.973884521484375,-0.991485595703125,0.003936767578125,0.028900146484375
1783338296302857700,7.983857666015625,-0.9895782470703125,0.00262451171875,0.02801513671875
1783338296312829700,7.99382958984375,-0.9896087646484375,0.0031890869140625,0.0275726318359375
1783338296322802400,8.003802490234374,-0.991729736328125,0.003875732421875,0.0274810791015625
1783338296332774700,8.013774658203126,-0.991119384765625,0.003204345703125,0.02734375
1783338296342747600,8.02374755859375,-0.990234375,0.0047454833984375,0.0279083251953125
1783338296352720600,8.033720703125,-0.9903717041015625,0.003143310546875,0.02679443359375
1783338296362692600,8.043692626953124,-0.99169921875,0.003814697265625,0.028350830078125
1783338296372665600,8.05366552734375,-0.991058349609375,0.005157470703125,0.0271759033203125
1783338296382638600,8.063638671875,-0.991607666015625,0.0043487548828125,0.027557373046875
1783338296392610600,8.073610595703125,-0.990753173828125,0.00390625,0.027252197265625
1783338296402583600,8.08358349609375,-0.992095947265625,0.0052947998046875,0.0276031494140625
1783338296412555800,8.0935556640625,-0.989501953125,0.005126953125,0.02777099609375
1783338296422528800,8.10352880859375,-0.9909515380859375,0.0034027099609375,0.027984619140625
1783338296432501500,8.11350146484375,-0.9911651611328125,0.0037994384765625,0.0292205810546875
1783338296442473700,8.1234736328125,-0.9919281005859375,0.00531005859375,0.0283050537109375
1783338296452446700,8.13344677734375,-0.990631103515625,0.003692626953125,0.02716064453125
1783338296462418400,8.14341845703125,-0.9917144775390625,0.00347900390625,0.0281524658203125
1783338296472391700,8.1533916015625,-0.9907379150390625,0.0048675537109375,0.026947021484375
1783338296482364700,8.16336474609375,-0.99017333984375,0.0052032470703125,0.0274200439453125
1783338296492336600,8.173336669921875,-0.992828369140625,0.0039825439453125,0.0278472900390625
1783338296502309600,8.1833095703125,-0.990692138671875,0.004730224609375,0.027099609375
1783338296512281600,8.193281494140624,-0.9900970458984375,0.004547119140625,0.0269012451171875
1783338296522254600,8.203254638671876,-0.990631103515625,0.0041656494140625,0.027313232421875
1783338296532227800,8.213227783203125,-0.990814208984375,0.0040435791015625,0.0276947021484375
1783338296542199600,8.223199462890625,-0.990234375,0.0046539306640625,0.0266571044921875
1783338296552172500,8.233172607421874,-0.9915008544921875,0.0049896240234375,0.0263824462890625
1783338296562145800,8.243145751953126,-0.9916534423828125,0.0036163330078125,0.0286102294921875
1783338296572117500,8.253117431640625,-0.990509033203125,0.0045013427734375,0.02716064453125
1783338296582090500,8.263090576171875,-0.991455078125,0.0044097900390625,0.0278778076171875
1783338296592062700,8.273062744140624,-0.9911651611328125,0.0041046142578125,0.0291748046875
1783338296602035500,8.283035400390625,-0.99053955078125,0.005035400390625,0.028289794921875
1783338296612008400,8.293008544921875,-0.989105224609375,0.005157470703125,0.0269622802734375
1783338296621980700,8.302980712890625,-0.9905242919921875,0.0039215087890625,0.028350830078125
1783338296631953700,8.31295361328125,-0.9907989501953125,0.0044097900390625,0.02813720703125
1783338296641925600,8.322925537109375,-0.9909515380859375,0.0047454833984375,0.0264739990234375
1783338296651898600,8.332898681640625,-0.991546630859375,0.004852294921875,0.0293121337890625
1783338296661871600,8.34287158203125,-0.991485595703125,0.004364013671875,0.0282745361328125
1783338296671843600,8.352843505859376,-0.9906463623046875,0.0047607421875,0.0271759033203125
1783338296681816600,8.362816650390625,-0.989532470703125,0.0031890869140625,0.029541015625
1783338296691788800,8.372788818359375,-0.9906005859375,0.0042266845703125,0.0297393798828125
1783338296701761800,8.38276171875,-0.990814208984375,0.003875732421875,0.027008056640625
1783338296711734500,8.392734619140626,-0.990234375,0.0036773681640625,0.0277252197265625
1783338296721706800,8.402706787109375,-0.990966796875,0.0056610107421875,0.0274505615234375
1783338296731679700,8.4126796875,-0.9900970458984375,0.0036163330078125,0.0278778076171875
1783338296741651500,8.4226513671875,-0.9898834228515625,0.0037994384765625,0.027740478515625
1783338296751624700,8.432624755859376,-0.9902496337890625,0.0035552978515625,0.02667236328125
1783338296761597700,8.44259765625,-0.990936279296875,0.004669189453125,0.0269622802734375
1783338296771569700,8.452569580078125,-0.9904022216796875,0.003997802734375,0.0279541015625
1783338296781542700,8.462542724609374,-0.990966796875,0.0041046142578125,0.0282440185546875
1783338296791515600,8.472515625,-0.990264892578125,0.004302978515625,0.0269927978515625
1783338296801487600,8.482487548828125,-0.991302490234375,0.00396728515625,0.0281524658203125
1783338296811460600,8.492460693359375,-0.98944091796875,0.0039215087890625,0.02734375
1783338296821432600,8.5024326171875,-0.9915618896484375,0.0038909912109375,0.0284423828125
1783338296831405600,8.512405517578125,-0.9908599853515625,0.0038604736328125,0.02740478515625
1783338296841378800,8.52237890625,-0.991119384765625,0.0046539306640625,0.0277252197265625
1783338296851350500,8.5323505859375,-0.99078369140625,0.004302978515625,0.02728271484375
1783338296861323500,8.542323486328126,-0.9903106689453125,0.003631591796875,0.0277099609375
1783338296871295700,8.552295654296875,-0.9903717041015625,0.0045928955078125,0.027801513671875
1783338296881268700,8.562268798828125,-0.9899749755859375,0.0030364990234375,0.0270538330078125
1783338296891241500,8.572241455078125,-0.99078369140625,0.0040435791015625,0.0281829833984375
1783338296901213700,8.582213623046876,-0.9904327392578125,0.00372314453125,0.0273895263671875
1783338296911186700,8.592186767578125,-0.9916839599609375,0.004302978515625,0.029022216796875
1783338296921158700,8.60215869140625,-0.9908294677734375,0.004058837890625,0.0283203125
1783338296931131600,8.612131591796874,-0.9903411865234375,0.0043487548828125,0.027923583984375
1783338296941104600,8.622104736328126,-0.990386962890625,0.00531005859375,0.02532958984375
1783338296951076900,8.632076904296875,-0.99359130859375,0.0039520263671875,0.0274505615234375
1783338296961049600,8.642049560546875,-0.9906768798828125,0.004150390625,0.028778076171875
1783338296971022600,8.652022705078124,-0.9900054931640625,0.0049285888671875,0.028472900390625
1783338296980994800,8.661994873046876,-0.991424560546875,0.004119873046875,0.0274505615234375
1783338296990967800,8.6719677734375,-0.9916229248046875,0.003204345703125,0.028656005859375
1783338297000939500,8.681939453125,-0.98974609375,0.0045623779296875,0.0272216796875
1783338297010912800,8.691912841796874,-0.9905548095703125,0.0045318603515625,0.0270233154296875
1783338297020885800,8.7018857421875,-0.9915924072265625,0.0040283203125,0.02752685546875
1783338297030857500,8.711857421875,-0.9909515380859375,0.0048828125,0.0269622802734375
1783338297040830700,8.721830810546875,-0.990936279296875,0.003936767578125,0.0285186767578125
1783338297050802700,8.731802734375,-0.9901885986328125,0.00579833984375,0.02752685546875
1783338297060775700,8.741775634765625,-0.99053955078125,0.0040283203125,0.0293121337890625
1783338297070748700,8.751748779296875,-0.9903564453125,0.0038299560546875,0.028350830078125
1783338297080720600,8.761720703125,-0.9915313720703125,0.0046844482421875,0.0281829833984375
1783338297090693600,8.771693603515626,-0.990753173828125,0.003082275390625,0.02838134765625
1783338297100666000,8.781666015625,-0.99066162109375,0.003753662109375,0.02679443359375
1783338297110639000,8.79163916015625,-0.992279052734375,0.003814697265625,0.027252197265625
1783338297120612000,8.801612060546875,-0.991943359375,0.004608154296875,0.0276031494140625
1783338297130584000,8.811583984375,-0.99005126953125,0.0052947998046875,0.0271148681640625
1783338297140557000,8.82155712890625,-0.989410400390625,0.0042266845703125,0.027618408203125
1783338297150529000,8.831529052734375,-0.9908905029296875,0.003753662109375,0.0277862548828125
1783338297160502300,8.841502197265624,-0.990692138671875,0.0046234130859375,0.0269775390625
1783338297170475000,8.85147509765625,-0.9908294677734375,0.0045013427734375,0.0278472900390625
1783338297180447000,8.861447021484375,-0.9913330078125,0.00323486328125,0.0279998779296875
1783338297190420200,8.871420166015625,-0.9906158447265625,0.0047760009765625,0.0273284912109375
1783338297200392000,8.881391845703124,-0.99188232421875,0.0060272216796875,0.027557373046875
1783338297210365200,8.891365234375,-0.9909515380859375,0.00433349609375,0.0278778076171875
1783338297220338200,8.901338134765625,-0.9903106689453125,0.0036773681640625,0.0267791748046875
1783338297230310100,8.91131005859375,-0.9897613525390625,0.005157470703125,0.0276336669921875
1783338297240283100,8.921283203125,-0.991241455078125,0.0047454833984375,0.0272064208984375
1783338297250256100,8.931256103515626,-0.9908905029296875,0.00396728515625,0.028472900390625
1783338297260228000,8.94122802734375,-0.9905242919921875,0.0041046142578125,0.0281219482421875
1783338297270201000,8.951201171875,-0.9906005859375,0.0039215087890625,0.0277862548828125
1783338297280173000,8.961173095703124,-0.9907379150390625,0.005126953125,0.0279388427734375
1783338297290146000,8.97114599609375,-0.991851806640625,0.0048370361328125,0.027801513671875
1783338297300119000,8.981119140625,-0.9910125732421875,0.0046844482421875,0.027984619140625
1783338297310091000,8.991091064453125,-0.9911346435546875,0.0038299560546875,0.02911376953125
1783338297320064000,9.00106396484375,-0.9921875,0.0045013427734375,0.027557373046875
1783338297330036200,9.0110361328125,-0.99005126953125,0.0045166015625,0.027740478515625
1783338297340009200,9.02100927734375,-0.9910125732421875,0.0039825439453125,0.02593994140625
1783338297349982000,9.03098193359375,-0.9909820556640625,0.004150390625,0.0284881591796875
1783338297359954200,9.0409541015625,-0.9896240234375,0.004608154296875,0.0280303955078125
1783338297369927200,9.05092724609375,-0.9915008544921875,0.0036773681640625,0.027313232421875
1783338297379899100,9.060899169921875,-0.99090576171875,0.00555419921875,0.0279998779296875
1783338297389872000,9.0708720703125,-0.9897003173828125,0.0058746337890625,0.02764892578125
1783338297399845000,9.08084521484375,-0.9901885986328125,0.0052947998046875,0.02764892578125
1783338297409817000,9.090817138671875,-0.990447998046875,0.0032196044921875,0.0283660888671875
1783338297419790000,9.1007900390625,-0.991607666015625,0.00482177734375,0.026763916015625
1783338297429762000,9.110761962890624,-0.991973876953125,0.0045623779296875,0.0269775390625
1783338297439735300,9.1207353515625,-0.990020751953125,0.00555419921875,0.0279541015625
1783338297449708000,9.1307080078125,-0.99090576171875,0.003814697265625,0.0270538330078125
1783338297459680000,9.140679931640625,-0.99188232421875,0.0043792724609375,0.0271759033203125
1783338297469653200,9.1506533203125,-0.9899749755859375,0.0055084228515625,0.028076171875
1783338297479625000,9.160625,-0.991668701171875,0.0036163330078125,0.02801513671875
1783338297489598000,9.170597900390625,-0.98974609375,0.0040435791015625,0.027435302734375
1783338297499571200,9.1805712890625,-0.990875244140625,0.004150390625,0.0272369384765625
1783338297509543200,9.190543212890624,-0.9910430908203125,0.0047607421875,0.027801513671875
1783338297519516000,9.200515869140625,-0.9906005859375,0.0037078857421875,0.0269622802734375
1783338297529488100,9.210488037109375,-0.989837646484375,0.0035858154296875,0.0274810791015625
1783338297539461000,9.220461181640625,-0.99188232421875,0.0047149658203125,0.0276641845703125
1783338297549434000,9.23043408203125,-0.9919281005859375,0.004638671875,0.028045654296875
1783338297559406000,9.240406005859375,-0.9910125732421875,0.0059356689453125,0.029052734375
1783338297569379000,9.250379150390625,-0.99151611328125,0.0035400390625,0.027923583984375
1783338297579351300,9.260351318359374,-0.9926300048828125,0.003448486328125,0.026580810546875
1783338297589324000,9.270323974609376,-0.99188232421875,0.0045928955078125,0.0284881591796875
1783338297599297000,9.280297119140625,-0.9911041259765625,0.0047607421875,0.0291290283203125
1783338297609269200,9.290269287109375,-0.99114990234375,0.0042877197265625,0.0288848876953125
1783338297619242200,9.3002421875,-0.9912109375,0.0037994384765625,0.0271453857421875
1783338297629214000,9.3102138671875,-0.990936279296875,0.004638671875,0.02691650390625
1783338297639187200,9.320187255859375,-0.9916229248046875,0.003387451171875,0.0286865234375
1783338297649160200,9.33016015625,-0.9903411865234375,0.0045166015625,0.0289154052734375
1783338297659133200,9.34013330078125,-0.99053955078125,0.004852294921875,0.03082275390625
1783338297669105200,9.350105224609376,-0.99017333984375,0.004302978515625,0.02679443359375
1783338297679078100,9.360078125,-0.990203857421875,0.003936767578125,0.0279693603515625
1783338297689050000,9.370050048828125,-0.9913482666015625,0.005279541015625,0.0275115966796875
1783338297699023000,9.380023193359374,-0.9908905029296875,0.00494384765625,0.026885986328125
1783338297708996000,9.38999609375,-0.991943359375,0.0040283203125,0.028656005859375
1783338297718968000,9.399968017578125,-0.9902801513671875,0.005462646484375,0.0267333984375
1783338297728941300,9.40994140625,-0.990203857421875,0.003662109375,0.0271759033203125
1783338297738913000,9.4199130859375,-0.9903106689453125,0.00439453125,0.0269927978515625
1783338297748886000,9.429885986328125,-0.9914398193359375,0.00341796875,0.02716064453125
1783338297758859300,9.439859375,-0.9919891357421875,0.00537109375,0.0283203125
1783338297768831000,9.4498310546875,-0.990234375,0.0018157958984375,0.0260467529296875
1783338297778804000,9.459803955078126,-0.9917144775390625,0.0050811767578125,0.026763916015625
1783338297788776200,9.469776123046875,-0.9893035888671875,0.0037384033203125,0.027191162109375
1783338297798749200,9.479749267578125,-0.990631103515625,0.005126953125,0.0286407470703125
1783338297808722000,9.489721923828125,-0.9892730712890625,0.0035552978515625,0.03045654296875
1783338297818694100,9.499694091796876,-0.992340087890625,0.0046539306640625,0.0272064208984375
1783338297828667100,9.509667236328125,-0.990264892578125,0.0048065185546875,0.0259552001953125
1783338297838639000,9.51963916015625,-0.992218017578125,0.004119873046875,0.0277862548828125
1783338297848612000,9.529612060546874,-0.9925384521484375,0.004364013671875,0.0260467529296875
1783338297858585000,9.539585205078126,-0.9921722412109375,0.005096435546875,0.028533935546875
1783338297868557300,9.549557373046875,-0.988800048828125,0.005218505859375,0.0268096923828125
1783338297878530000,9.559530029296875,-0.9906463623046875,0.0029296875,0.02703857421875
1783338297888502000,9.569501953125,-0.989990234375,0.0047760009765625,0.0287322998046875
1783338297898475300,9.579475341796876,-0.989471435546875,0.0032196044921875,0.027496337890625
1783338297908448000,9.589447998046875,-0.9893798828125,0.0048370361328125,0.0279693603515625
1783338297918420000,9.599419921875,-0.9920806884765625,0.0042877197265625,0.028411865234375
1783338297928393200,9.609393310546874,-0.990966796875,0.0048828125,0.0266876220703125
1783338297938365000,9.619364990234375,-0.9896392822265625,0.002288818359375,0.027801513671875
1783338297948338000,9.629337890625,-0.99188232421875,0.0046234130859375,0.0298614501953125
1783338297958311200,9.639311279296875,-0.9931488037109375,0.0034027099609375,0.0277099609375
1783338297968283100,9.649283203125,-0.9907073974609375,0.0060577392578125,0.0298919677734375
1783338297978256000,9.659255859375,-0.989288330078125,0.0033721923828125,0.024993896484375
1783338297988228000,9.66922802734375,-0.9918670654296875,0.0046539306640625,0.029296875
1783338297998201000,9.679201171875,-0.9907684326171875,0.0024871826171875,0.0267181396484375
1783338298008174000,9.689174072265626,-0.9892120361328125,0.0042877197265625,0.0272369384765625
1783338298018146000,9.69914599609375,-0.991058349609375,0.0031280517578125,0.0271453857421875
1783338298028119000,9.709119140625,-0.9920501708984375,0.0035247802734375,0.0284423828125
1783338298038091300,9.71909130859375,-0.9904937744140625,0.0043182373046875,0.02618408203125
1783338298048064000,9.72906396484375,-0.99005126953125,0.004608154296875,0.0276947021484375
1783338298058036000,9.739035888671875,-0.99151611328125,0.0055694580078125,0.02801513671875
1783338298068009200,9.74900927734375,-0.990570068359375,0.0035858154296875,0.027801513671875
1783338298077982200,9.758982177734374,-0.991241455078125,0.0050201416015625,0.027435302734375
1783338298087954000,9.768953857421875,-0.991058349609375,0.0048675537109375,0.0278472900390625
1783338298097926400,9.778926513671875,-0.991180419921875,0.003387451171875,0.0289154052734375
1783338298107898400,9.7888984375,-0.991668701171875,0.004547119140625,0.0282745361328125
1783338298117871400,9.798871337890626,-0.9895172119140625,0.0042266845703125,0.0263519287109375
1783338298127844400,9.80884423828125,-0.990814208984375,0.004302978515625,0.02838134765625
1783338298137816300,9.81881640625,-0.99114990234375,0.0043182373046875,0.0276031494140625
1783338298147789600,9.82878955078125,-0.9902191162109375,0.0039215087890625,0.0275421142578125
1783338298157761300,9.83876123046875,-0.9914398193359375,0.004058837890625,0.027587890625
1783338298167734300,9.848734375,-0.9923553466796875,0.0048370361328125,0.0269927978515625
1783338298177707500,9.85870751953125,-0.9907379150390625,0.0045013427734375,0.028228759765625
1783338298187679200,9.86867919921875,-0.9906768798828125,0.00445556640625,0.0279083251953125
1783338298197652200,9.87865234375,-0.990570068359375,0.0042266845703125,0.028900146484375
1783338298207624400,9.88862451171875,-0.989471435546875,0.0030364990234375,0.0269927978515625
1783338298217597400,9.898597412109375,-0.9909515380859375,0.005523681640625,0.0299224853515625
1783338298227570200,9.908570068359374,-0.98968505859375,0.003753662109375,0.0280303955078125
1783338298237542400,9.91854248046875,-0.990936279296875,0.005035400390625,0.02850341796875
1783338298247515400,9.928515380859375,-0.99102783203125,0.00372314453125,0.0279083251953125
1783338298257487400,9.9384873046875,-0.9916839599609375,0.0047149658203125,0.0275726318359375
1783338298267460400,9.94846044921875,-0.9911041259765625,0.004638671875,0.0277252197265625
1783338298277433300,9.958433349609376,-0.9908294677734375,0.0038299560546875,0.02593994140625
1783338298287405600,9.968405517578125,-0.99066162109375,0.004852294921875,0.027496337890625
1783338298297378300,9.97837841796875,-0.9919281005859375,0.00445556640625,0.0272674560546875
1783338298307350300,9.988350341796876,-0.9913330078125,0.0037841796875,0.02703857421875
1783338298317323500,9.998323486328125,-0.9903411865234375,0.0037994384765625,0.02716064453125
1783338298327296500,10.008296630859375,-0.99072265625,0.0047760009765625,0.027099609375
1783338298337268500,10.0182685546875,-0.9911956787109375,0.004852294921875,0.0284881591796875
1783338298347241500,10.028241455078126,-0.9921722412109375,0.00439453125,0.028106689453125
1783338298357213400,10.03821337890625,-0.9900665283203125,0.0055999755859375,0.0265655517578125
1783338298367186400,10.0481865234375,-0.9921722412109375,0.003753662109375,0.0278167724609375
1783338298377159400,10.058159423828124,-0.989990234375,0.0057373046875,0.02764892578125
1783338298387131400,10.06813134765625,-0.991180419921875,0.0036163330078125,0.028228759765625
1783338298397104400,10.0781044921875,-0.9911651611328125,0.0050811767578125,0.0277099609375
1783338298407076400,10.088076416015625,-0.9906005859375,0.0067901611328125,0.0260772705078125
1783338298417049300,10.09804931640625,-0.9922027587890625,0.0033721923828125,0.0289764404296875
1783338298427022300,10.108022216796876,-0.9902191162109375,0.0034027099609375,0.0279998779296875
1783338298436994300,10.117994384765625,-0.9908905029296875,0.0045013427734375,0.027374267578125
1783338298446967300,10.12796728515625,-0.990875244140625,0.0033416748046875,0.028106689453125
1783338298456939500,10.137939453125,-0.9886322021484375,0.0047149658203125,0.0283660888671875
1783338298466912500,10.14791259765625,-0.9904327392578125,0.004547119140625,0.0279388427734375
1783338298476885200,10.15788525390625,-0.991119384765625,0.0042572021484375,0.027618408203125
1783338298486857500,10.167857421875,-0.9928131103515625,0.004425048828125,0.028045654296875
1783338298496830500,10.17783056640625,-0.9915771484375,0.0035400390625,0.0281982421875
1783338298506802400,10.187802490234375,-0.9907989501953125,0.0049591064453125,0.0271759033203125
1783338298516775400,10.197775390625,-0.9900360107421875,0.0035247802734375,0.026947021484375
1783338298526748400,10.20774853515625,-0.991546630859375,0.0043182373046875,0.027313232421875
1783338298536720400,10.217720458984376,-0.9907379150390625,0.0047454833984375,0.0271148681640625
1783338298546693400,10.227693359375,-0.9907989501953125,0.004180908203125,0.027435302734375
1783338298556665300,10.237665283203125,-0.990478515625,0.00634765625,0.0279083251953125
1783338298566638600,10.247638671875,-0.9909515380859375,0.0047607421875,0.0270843505859375
1783338298576611300,10.257611328125,-0.990875244140625,0.0039215087890625,0.02716064453125
1783338298586583300,10.267583251953125,-0.990570068359375,0.0037384033203125,0.028350830078125
1783338298596556500,10.277556640625,-0.9914093017578125,0.003814697265625,0.0267333984375
1783338298606528300,10.2875283203125,-0.9907684326171875,0.003875732421875,0.02801513671875
1783338298616501200,10.297501220703126,-0.990325927734375,0.0043487548828125,0.028228759765625
1783338298626474500,10.307474609375,-0.991302490234375,0.0043182373046875,0.0294647216796875
1783338298636446500,10.317446533203125,-0.991241455078125,0.0054168701171875,0.027618408203125
1783338298646419200,10.327419189453124,-0.9925079345703125,0.003570556640625,0.027557373046875
1783338298656391400,10.337391357421875,-0.9923095703125,0.0048065185546875,0.028411865234375
1783338298666364400,10.347364501953125,-0.990325927734375,0.0045166015625,0.0270538330078125
1783338298676337400,10.35733740234375,-0.989715576171875,0.00225830078125,0.0277252197265625
1783338298686309400,10.367309326171876,-0.990631103515625,0.00494384765625,0.0273590087890625
1783338298696282400,10.377282470703125,-0.9906158447265625,0.0050201416015625,0.0272674560546875
1783338298706254600,10.387254638671875,-0.98956298828125,0.0048828125,0.0281524658203125
1783338298716227300,10.397227294921874,-0.989776611328125,0.00421142578125,0.0277099609375
1783338298726200300,10.407200439453124,-0.9920654296875,0.003570556640625,0.028167724609375
1783338298736172500,10.417172607421875,-0.9902191162109375,0.0043487548828125,0.0285797119140625
1783338298746145500,10.4271455078125,-0.991119384765625,0.0047149658203125,0.0279388427734375
1783338298756117200,10.4371171875,-0.99163818359375,0.0034027099609375,0.02886962890625
1783338298766090500,10.447090576171876,-0.99072265625,0.0044097900390625,0.0273895263671875
1783338298776063500,10.4570634765625,-0.991119384765625,0.0044403076171875,0.0279693603515625
1783338298786035200,10.46703515625,-0.990966796875,0.0048065185546875,0.0287017822265625
1783338298796008400,10.477008544921874,-0.990203857421875,0.0047454833984375,0.0281982421875
1783338298805980400,10.48698046875,-0.992431640625,0.0045928955078125,0.028350830078125
1783338298815953400,10.496953369140625,-0.990936279296875,0.004974365234375,0.0283966064453125
1783338298825926400,10.506926513671875,-0.9915924072265625,0.002838134765625,0.027008056640625
1783338298835898400,10.5168984375,-0.990570068359375,0.0031585693359375,0.027374267578125
1783338298845871400,10.526871337890626,-0.991241455078125,0.0044403076171875,0.0283355712890625
1783338298855843300,10.53684326171875,-0.9914093017578125,0.005096435546875,0.0272064208984375
1783338298865816300,10.54681640625,-0.989715576171875,0.0048675537109375,0.0268402099609375
1783338298875789300,10.556789306640624,-0.9899749755859375,0.0041656494140625,0.0278472900390625
1783338298885761500,10.566761474609375,-0.9897918701171875,0.0053558349609375,0.027008056640625
1783338298895734300,10.576734375,-0.99072265625,0.0046234130859375,0.0286712646484375
1783338298905706500,10.58670654296875,-0.9906768798828125,0.0034332275390625,0.02691650390625
1783338298915679500,10.596679443359376,-0.990997314453125,0.0047607421875,0.0269927978515625
1783338298925651200,10.606651123046875,-0.991180419921875,0.003814697265625,0.028411865234375
1783338298935624400,10.61662451171875,-0.9906158447265625,0.004974365234375,0.02764892578125
1783338298945597400,10.626597412109374,-0.9914093017578125,0.004058837890625,0.0276031494140625
1783338298955569400,10.6365693359375,-0.9901580810546875,0.0039520263671875,0.02752685546875
1783338298965542400,10.64654248046875,-0.9913330078125,0.00567626953125,0.02789306640625
1783338298975515400,10.656515380859375,-0.990142822265625,0.004913330078125,0.02752685546875
1783338298985487400,10.6664873046875,-0.9904937744140625,0.00360107421875,0.0277862548828125
1783338298995460400,10.67646044921875,-0.989501953125,0.004150390625,0.0287322998046875
1783338299005432300,10.686432373046875,-0.9891510009765625,0.0038299560546875,0.026092529296875
1783338299015405300,10.6964052734375,-0.9911651611328125,0.00616455078125,0.0283660888671875
1783338299025377300,10.706377197265626,-0.9906463623046875,0.0037078857421875,0.0285186767578125
1783338299035350300,10.716350341796876,-0.99090576171875,0.0050048828125,0.028533935546875
1783338299045323300,10.7263232421875,-0.990631103515625,0.0052337646484375,0.02679443359375
1783338299055295500,10.73629541015625,-0.990966796875,0.0045013427734375,0.0283966064453125
1783338299065268200,10.746268310546874,-0.9899444580078125,0.005523681640625,0.0279998779296875
1783338299075240400,10.756240478515625,-0.9907989501953125,0.004608154296875,0.027069091796875
1783338299085213400,10.76621337890625,-0.9904632568359375,0.004638671875,0.0290069580078125
1783338299095186700,10.776186767578125,-0.9913330078125,0.0046844482421875,0.0269012451171875
1783338299105158700,10.78615869140625,-0.9910430908203125,0.004852294921875,0.027435302734375
1783338299115131600,10.796131591796875,-0.9903564453125,0.0028533935546875,0.0281219482421875
1783338299125103600,10.806103515625,-0.99200439453125,0.0047149658203125,0.0279388427734375
1783338299135076600,10.81607666015625,-0.9893035888671875,0.0039825439453125,0.0269317626953125
1783338299145049600,10.826049560546876,-0.9915924072265625,0.0035858154296875,0.028045654296875
1783338299155021600,10.836021484375,-0.9915008544921875,0.004486083984375,0.0276031494140625
1783338299164994800,10.845994873046875,-0.9909210205078125,0.0044097900390625,0.0270538330078125
1783338299174966500,10.855966552734374,-0.9908294677734375,0.0043792724609375,0.0267333984375
1783338299184939500,10.865939453125,-0.990966796875,0.0053253173828125,0.0278167724609375
1783338299194912800,10.875912841796875,-0.9915008544921875,0.0047454833984375,0.0270233154296875
1783338299204884500,10.885884521484375,-0.99072265625,0.003814697265625,0.02691650390625
1783338299214857500,10.895857421875,-0.9910430908203125,0.0040740966796875,0.028076171875
1783338299224829700,10.90582958984375,-0.98919677734375,0.003814697265625,0.0278778076171875
1783338299234802400,10.915802490234375,-0.990203857421875,0.003997802734375,0.027496337890625
1783338299244775400,10.925775390625,-0.99102783203125,0.0034027099609375,0.027740478515625
1783338299254747600,10.93574755859375,-0.990692138671875,0.0052032470703125,0.0283966064453125
1783338299264720600,10.945720703125,-0.989105224609375,0.0056610107421875,0.0263519287109375
1783338299274692600,10.955692626953125,-0.9906768798828125,0.0048828125,0.0268707275390625
1783338299284665600,10.96566552734375,-0.9911956787109375,0.0046844482421875,0.027374267578125
1783338299294638600,10.975638671875,-0.9907989501953125,0.003692626953125,0.02728271484375
1783338299304610600,10.985610595703125,-0.9905242919921875,0.00439453125,0.0283966064453125
1783338299314583600,10.99558349609375,-0.9925537109375,0.004241943359375,0.0284271240234375
1783338299324555500,11.005555419921874,-0.9904632568359375,0.00433349609375,0.0276641845703125
1783338299334528800,11.01552880859375,-0.991180419921875,0.0041351318359375,0.0275115966796875
1783338299344501500,11.02550146484375,-0.9910888671875,0.002899169921875,0.0277099609375
1783338299354473500,11.035473388671875,-0.9901580810546875,0.005096435546875,0.0281219482421875
1783338299364446700,11.04544677734375,-0.9921417236328125,0.0045166015625,0.027496337890625
1783338299374418400,11.05541845703125,-0.990753173828125,0.0034027099609375,0.02734375
1783338299384391400,11.065391357421875,-0.9899444580078125,0.0052947998046875,0.027069091796875
1783338299394364700,11.07536474609375,-0.9910888671875,0.0042572021484375,0.02740478515625
1783338299404336600,11.085336669921874,-0.9911956787109375,0.004241943359375,0.0271148681640625
1783338299414309400,11.095309326171876,-0.9906463623046875,0.0044097900390625,0.0291748046875
1783338299424281600,11.105281494140625,-0.9922943115234375,0.0052032470703125,0.02734375
1783338299434254600,11.115254638671875,-0.9913787841796875,0.0049285888671875,0.0278472900390625
1783338299444226600,11.1252265625,-0.9894561767578125,0.005157470703125,0.028594970703125
1783338299454199600,11.135199462890625,-0.9900360107421875,0.0045623779296875,0.0278167724609375
1783338299464172500,11.145172607421875,-0.9921875,0.0042877197265625,0.02685546875
1783338299474144800,11.155144775390625,-0.99298095703125,0.004302978515625,0.02777099609375
1783338299484117500,11.165117431640626,-0.9907379150390625,0.00396728515625,0.0282135009765625
1783338299494089700,11.17508984375,-0.9906158447265625,0.0042724609375,0.0264434814453125
1783338299504062700,11.185062744140625,-0.99176025390625,0.0042877197265625,0.0269012451171875
1783338299514035700,11.19503564453125,-0.991424560546875,0.0046844482421875,0.027801513671875
1783338299524007700,11.205007568359376,-0.990325927734375,0.003997802734375,0.02740478515625
1783338299533980700,11.214980712890625,-0.9906005859375,0.0037078857421875,0.0281982421875
1783338299543952600,11.22495263671875,-0.9918060302734375,0.003875732421875,0.0289459228515625
1783338299553925600,11.234925537109374,-0.99072265625,0.0036163330078125,0.02734375
1783338299563898600,11.244898681640626,-0.9912872314453125,0.0052337646484375,0.02734375
1783338299573870600,11.25487060546875,-0.992156982421875,0.0039825439453125,0.02947998046875
1783338299583843600,11.264843505859375,-0.9904632568359375,0.0052642822265625,0.026580810546875
1783338299593815600,11.274815673828124,-0.9908447265625,0.005401611328125,0.027496337890625
1783338299603788500,11.28478857421875,-0.9910888671875,0.004302978515625,0.027618408203125
1783338299613761500,11.294761474609375,-0.9906463623046875,0.004486083984375,0.0276336669921875
1783338299623733500,11.3047333984375,-0.990631103515625,0.004669189453125,0.0261993408203125
1783338299633706500,11.31470654296875,-0.991119384765625,0.0041351318359375,0.0278778076171875
1783338299643678700,11.3246787109375,-0.991455078125,0.003326416015625,0.0278167724609375
1783338299653651700,11.334651611328125,-0.9911651611328125,0.0049591064453125,0.0268707275390625
1783338299663624400,11.34462451171875,-0.9916839599609375,0.0048065185546875,0.0271759033203125
1783338299673596700,11.3545966796875,-0.99151611328125,0.0038909912109375,0.028411865234375
1783338299683569700,11.364569580078125,-0.9906005859375,0.003814697265625,0.029327392578125
1783338299693541600,11.374541748046875,-0.9902801513671875,0.00469970703125,0.0290069580078125
1783338299703514600,11.3845146484375,-0.990570068359375,0.0051116943359375,0.028076171875
1783338299713487600,11.394487548828126,-0.9898223876953125,0.00390625,0.0274200439453125
1783338299723459600,11.40445947265625,-0.990753173828125,0.00421142578125,0.0277252197265625
1783338299733432600,11.4144326171875,-0.9920806884765625,0.00347900390625,0.0280303955078125
1783338299743404500,11.424404541015624,-0.9914703369140625,0.0034637451171875,0.0282745361328125
1783338299753377800,11.434377685546876,-0.99066162109375,0.00390625,0.027618408203125
1783338299763349500,11.444349609375,-0.990081787109375,0.00347900390625,0.02667236328125
1783338299773322500,11.454322509765625,-0.98980712890625,0.003570556640625,0.027587890625
1783338299783295700,11.464295654296874,-0.9906768798828125,0.0058135986328125,0.0272979736328125
1783338299793267500,11.474267333984375,-0.9912872314453125,0.003936767578125,0.026611328125
1783338299803240400,11.484240478515625,-0.9911651611328125,0.003997802734375,0.0274658203125
1783338299813212700,11.494212646484375,-0.99090576171875,0.004638671875,0.02801513671875
1783338299823185700,11.504185546875,-0.9904632568359375,0.00457763671875,0.027374267578125
1783338299833158400,11.514158447265626,-0.990753173828125,0.0037384033203125,0.02716064453125
1783338299843130600,11.524130615234375,-0.9900360107421875,0.00421142578125,0.0282440185546875
1783338299853103600,11.534103515625,-0.9895477294921875,0.00396728515625,0.029876708984375
1783338299863075600,11.54407568359375,-0.990509033203125,0.0039825439453125,0.027557373046875
1783338299873048600,11.554048583984375,-0.991058349609375,0.003753662109375,0.027740478515625
1783338299883021600,11.564021484375,-0.9894561767578125,0.0040283203125,0.02734375
1783338299892993800,11.573993896484374,-0.9904632568359375,0.0050201416015625,0.02813720703125
1783338299902966500,11.583966552734376,-0.990692138671875,0.0028839111328125,0.0271759033203125
1783338299912938500,11.5939384765625,-0.9904937744140625,0.005157470703125,0.0281982421875
1783338299922911700,11.603911865234375,-0.98919677734375,0.0038299560546875,0.0281829833984375
1783338299932884700,11.613884765625,-0.9913482666015625,0.0051727294921875,0.0289764404296875
1783338299942856400,11.6238564453125,-0.9910430908203125,0.00543212890625,0.0280914306640625
1783338299952829700,11.63382958984375,-0.990570068359375,0.004425048828125,0.0277099609375
1783338299962801700,11.6438017578125,-0.9906463623046875,0.0036773681640625,0.0274505615234375
1783338299972774400,11.6537744140625,-0.991058349609375,0.0043792724609375,0.028106689453125
1783338299982746600,11.66374658203125,-0.9916534423828125,0.0045318603515625,0.0281982421875
1783338299992719600,11.6737197265625,-0.99005126953125,0.004791259765625,0.0281219482421875
1783338300002692600,11.683692626953125,-0.991241455078125,0.0041961669921875,0.0289764404296875
1783338300012664600,11.69366455078125,-0.98980712890625,0.0041961669921875,0.0275421142578125
1783338300022637600,11.703637451171875,-0.991119384765625,0.0052032470703125,0.027435302734375
1783338300032609800,11.71360986328125,-0.9908599853515625,0.0044097900390625,0.028839111328125
1783338300042582500,11.72358251953125,-0.990234375,0.003173828125,0.028717041015625
1783338300052555500,11.733555419921874,-0.9913330078125,0.004486083984375,0.02789306640625
1783338300062527700,11.74352783203125,-0.9905548095703125,0.005523681640625,0.0284881591796875
1783338300072500700,11.753500732421875,-0.9906463623046875,0.00384521484375,0.0279693603515625
1783338300082472400,11.763472412109374,-0.9900054931640625,0.0049591064453125,0.029266357421875
1783338300092445700,11.77344580078125,-0.990509033203125,0.003814697265625,0.028533935546875
1783338300102418700,11.783418701171875,-0.991363525390625,0.0053253173828125,0.0281982421875
1783338300112390700,11.793390625,-0.9905548095703125,0.0047149658203125,0.0283050537109375
1783338300122364000,11.803364013671874,-0.990478515625,0.0033721923828125,0.0287322998046875
1783338300132335600,11.813335693359376,-0.99102783203125,0.004364013671875,0.027618408203125
1783338300142308600,11.82330859375,-0.990570068359375,0.004302978515625,0.0280914306640625
1783338300152281900,11.83328173828125,-0.9911651611328125,0.003814697265625,0.0276336669921875
1783338300162253600,11.843253662109374,-0.9926300048828125,0.00531005859375,0.0281829833984375
1783338300172226600,11.8532265625,-0.9906158447265625,0.00439453125,0.0278472900390625
1783338300182198800,11.86319873046875,-0.9899749755859375,0.0032806396484375,0.0275726318359375
1783338300192171800,11.873171875,-0.992767333984375,0.0045318603515625,0.0278167724609375
1783338300202144500,11.88314453125,-0.990386962890625,0.004547119140625,0.0273895263671875
1783338300212116700,11.89311669921875,-0.989044189453125,0.004302978515625,0.027679443359375
1783338300222089700,11.90308984375,-0.9916534423828125,0.0044097900390625,0.02777099609375
1783338300232061700,11.913061767578125,-0.992431640625,0.0047454833984375,0.027435302734375
1783338300242034700,11.92303466796875,-0.9915008544921875,0.0049896240234375,0.0281982421875
1783338300252006700,11.933006591796875,-0.99151611328125,0.0034027099609375,0.02740478515625
1783338300261980000,11.94297998046875,-0.991180419921875,0.003692626953125,0.027374267578125
1783338300271952600,11.95295263671875,-0.9915771484375,0.0044708251953125,0.0272064208984375
1783338300281924600,11.962924560546876,-0.9910125732421875,0.0045013427734375,0.0269775390625
1783338300291897900,11.97289794921875,-0.991241455078125,0.0034942626953125,0.0279388427734375
1783338300301869600,11.98286962890625,-0.9901580810546875,0.003936767578125,0.0260162353515625
1783338300311842600,11.992842529296874,-0.990753173828125,0.0048370361328125,0.026947021484375
1783338300321815800,12.00281591796875,-0.9911651611328125,0.0037384033203125,0.0290679931640625
1783338300331787800,12.012787841796875,-0.9918975830078125,0.002960205078125,0.0272674560546875
1783338300341760500,12.022760498046875,-0.9907684326171875,0.00457763671875,0.028564453125
1783338300351732700,12.032732666015624,-0.991119384765625,0.00445556640625,0.028076171875
1783338300361705700,12.042705810546876,-0.9915924072265625,0.003875732421875,0.0296783447265625
1783338300371678700,12.0526787109375,-0.9902191162109375,0.0043792724609375,0.02734375
1783338300381650700,12.062650634765625,-0.9901275634765625,0.0049896240234375,0.0274200439453125
1783338300391623700,12.072623779296874,-0.990234375,0.005340576171875,0.0275421142578125
1783338300401596000,12.082595947265625,-0.9907379150390625,0.0042572021484375,0.0280609130859375
1783338300411568600,12.092568603515625,-0.9908447265625,0.004791259765625,0.028289794921875
1783338300421540900,12.102540771484374,-0.9909820556640625,0.0043487548828125,0.0281982421875
1783338300431513900,12.112513916015626,-0.9905853271484375,0.0049896240234375,0.028167724609375
1783338300441486800,12.12248681640625,-0.9913330078125,0.0036468505859375,0.027191162109375
1783338300451458800,12.132458740234375,-0.991058349609375,0.0047760009765625,0.0272979736328125
1783338300461431800,12.142431884765625,-0.9919586181640625,0.005096435546875,0.0275115966796875
1783338300471403800,12.15240380859375,-0.991058349609375,0.0055389404296875,0.0264739990234375
1783338300481376800,12.162376708984375,-0.9906768798828125,0.00311279296875,0.0269622802734375
1783338300491349800,12.172349853515625,-0.9905853271484375,0.0030517578125,0.0279083251953125
1783338300501321700,12.18232177734375,-0.98980712890625,0.003326416015625,0.0283966064453125
1783338300511294700,12.192294677734376,-0.9904022216796875,0.0047760009765625,0.026519775390625
1783338300521266700,12.2022666015625,-0.990570068359375,0.005126953125,0.0265045166015625
1783338300531239700,12.21223974609375,-0.9911041259765625,0.0046844482421875,0.02679443359375
1783338300541212700,12.222212646484374,-0.99200439453125,0.0046844482421875,0.0264892578125
1783338300551184600,12.2321845703125,-0.9914703369140625,0.004150390625,0.0275726318359375
1783338300561157600,12.24215771484375,-0.99066162109375,0.0050201416015625,0.0285186767578125
1783338300571129900,12.2521298828125,-0.9906768798828125,0.0045166015625,0.0267486572265625
1783338300581102600,12.2621025390625,-0.98968505859375,0.0043487548828125,0.0265960693359375
1783338300591074800,12.27207470703125,-0.991485595703125,0.004791259765625,0.0276336669921875
1783338300601047800,12.2820478515625,-0.99114990234375,0.0044708251953125,0.0281219482421875
1783338300611020800,12.292020751953125,-0.9903106689453125,0.0037841796875,0.0284576416015625
1783338300620992800,12.30199267578125,-0.9911956787109375,0.004150390625,0.02667236328125
1783338300630965800,12.3119658203125,-0.990814208984375,0.0039520263671875,0.02728271484375
1783338300640937700,12.321937744140625,-0.9910430908203125,0.003021240234375,0.027801513671875
1783338300650910700,12.33191064453125,-0.991790771484375,0.0048828125,0.02752685546875
1783338300660883700,12.3418837890625,-0.9913787841796875,0.0030364990234375,0.0278472900390625
1783338300670855700,12.351855712890625,-0.99267578125,0.0047607421875,0.0284271240234375
1783338300680829000,12.361828857421875,-0.9903106689453125,0.0041656494140625,0.02825927734375
1783338300690800600,12.371800537109374,-0.990997314453125,0.0032806396484375,0.0276031494140625
1783338300700773600,12.381773681640626,-0.9904937744140625,0.0054931640625,0.0279083251953125
1783338300710747000,12.391746826171875,-0.9905548095703125,0.0044403076171875,0.027191162109375
1783338300720718600,12.401718505859375,-0.9916229248046875,0.004425048828125,0.0282745361328125
1783338300730691600,12.411691650390624,-0.9904022216796875,0.003021240234375,0.0281829833984375
1783338300740663800,12.421663818359375,-0.9913482666015625,0.0040130615234375,0.0278778076171875
1783338300750636800,12.43163671875,-0.9903411865234375,0.0041351318359375,0.029052734375
1783338300760608800,12.44160888671875,-0.991363525390625,0.0035247802734375,0.0279693603515625
1783338300770581800,12.451581787109374,-0.9906005859375,0.0056610107421875,0.026611328125
1783338300780554800,12.4615546875,-0.9913482666015625,0.0045928955078125,0.027374267578125
1783338300790526700,12.471526611328125,-0.9918670654296875,0.004241943359375,0.027587890625
1783338300800499700,12.481499755859375,-0.99066162109375,0.004486083984375,0.0281219482421875
1783338300810471700,12.4914716796875,-0.9914093017578125,0.00390625,0.0281219482421875
1783338300820445000,12.50144482421875,-0.989898681640625,0.004425048828125,0.0279083251953125
1783338300830417700,12.511417724609375,-0.9911651611328125,0.004638671875,0.0267791748046875
1783338300840389600,12.5213896484375,-0.9912872314453125,0.0047149658203125,0.027069091796875
1783338300850363000,12.53136279296875,-0.9899139404296875,0.0041961669921875,0.0274810791015625
1783338300860334600,12.54133447265625,-0.99041748046875,0.004638671875,0.025665283203125
1783338300870307600,12.5513076171875,-0.9905242919921875,0.004364013671875,0.0282135009765625
1783338300880279800,12.56127978515625,-0.991302490234375,0.004150390625,0.027984619140625
1783338300890252800,12.571252685546876,-0.9912261962890625,0.0041656494140625,0.0279693603515625
1783338300900225500,12.5812255859375,-0.9909820556640625,0.004241943359375,0.0281982421875
1783338300910197800,12.59119775390625,-0.990478515625,0.0041351318359375,0.0271453857421875
1783338300920170800,12.601170654296874,-0.9899139404296875,0.0041961669921875,0.0277862548828125
1783338300930142700,12.611142822265625,-0.991363525390625,0.0033111572265625,0.0276947021484375
1783338300940115700,12.62111572265625,-0.990142822265625,0.004730224609375,0.02838134765625
1783338300950088700,12.631088623046875,-0.990509033203125,0.0056915283203125,0.0279388427734375
1783338300960061000,12.64106103515625,-0.9896087646484375,0.004638671875,0.0269775390625
1783338300970033700,12.65103369140625,-0.990020751953125,0.00396728515625,0.027862548828125
1783338300980005600,12.661005615234375,-0.9907379150390625,0.0037994384765625,0.028533935546875
1783338300989979000,12.670978759765624,-0.9911956787109375,0.00396728515625,0.0279693603515625
1783338300999952000,12.680951904296874,-0.9918975830078125,0.0038299560546875,0.0276641845703125
1783338301009923600,12.690923583984375,-0.9908294677734375,0.0049591064453125,0.02764892578125
1783338301019896800,12.700896728515625,-0.9905853271484375,0.004669189453125,0.0279693603515625
1783338301029868800,12.710868896484374,-0.9908447265625,0.0042877197265625,0.0277099609375
1783338301039841500,12.720841552734376,-0.9906158447265625,0.0042724609375,0.02783203125
1783338301049813800,12.730813720703125,-0.9907684326171875,0.0048828125,0.0282745361328125
1783338301059786800,12.740786865234375,-0.9907073974609375,0.003997802734375,0.0269927978515625
1783338301069759500,12.750759521484374,-0.9919281005859375,0.00323486328125,0.028167724609375
1783338301079731700,12.760731689453126,-0.9916534423828125,0.0040740966796875,0.027801513671875
1783338301089704700,12.77070458984375,-0.992431640625,0.0045623779296875,0.027862548828125
1783338301099678000,12.780677978515625,-0.99017333984375,0.0041656494140625,0.0280914306640625
1783338301109651200,12.790651123046874,-0.99267578125,0.005157470703125,0.0283203125
1783338301119624000,12.8006240234375,-0.99072265625,0.0040435791015625,0.027984619140625
1783338301129596000,12.810595947265625,-0.98980712890625,0.0040740966796875,0.02764892578125
1783338301139569200,12.820569091796875,-0.9909820556640625,0.0045928955078125,0.028778076171875
1783338301149540900,12.830540771484374,-0.9910430908203125,0.0046539306640625,0.026092529296875
1783338301159513900,12.840513916015626,-0.990875244140625,0.004241943359375,0.0268707275390625
1783338301169486000,12.850486083984375,-0.9909515380859375,0.0041046142578125,0.0264739990234375
1783338301179458800,12.860458740234375,-0.991424560546875,0.004730224609375,0.0275726318359375
1783338301189431800,12.870431884765624,-0.990814208984375,0.0033111572265625,0.0269012451171875
1783338301199404000,12.880404052734375,-0.99114990234375,0.00469970703125,0.027374267578125
1783338301209377000,12.890376953125,-0.990966796875,0.004058837890625,0.02850341796875
1783338301219349000,12.900348876953124,-0.9904632568359375,0.0045166015625,0.0265960693359375
1783338301229322000,12.910322021484374,-0.99090576171875,0.003326416015625,0.0274200439453125
1783338301239295000,12.920294921875,-0.9904937744140625,0.0045318603515625,0.028564453125
1783338301249267000,12.930266845703125,-0.9895477294921875,0.0057525634765625,0.028167724609375
1783338301259240000,12.940239990234375,-0.9903717041015625,0.00433349609375,0.0272369384765625
1783338301269212000,12.9502119140625,-0.99041748046875,0.003143310546875,0.0284881591796875
1783338301279185200,12.96018505859375,-0.99017333984375,0.004791259765625,0.0274200439453125
1783338301289156900,12.970156982421875,-0.9918975830078125,0.004302978515625,0.027191162109375
1783338301299129900,12.9801298828125,-0.9905853271484375,0.0029754638671875,0.0277099609375
1783338301309103000,12.99010302734375,-0.9905548095703125,0.0046539306640625,0.0275726318359375
1783338301319074800,13.00007470703125,-0.9906158447265625,0.004547119140625,0.0273895263671875
1783338301329047800,13.0100478515625,-0.991455078125,0.0034027099609375,0.027252197265625
1783338301339020000,13.02002001953125,-0.9901885986328125,0.0042266845703125,0.0283203125
