time,seconds_elapsed,z,y,x
1783338288379606500,0.0606064453125,-0.0021885856986045837,-0.039964459836483,-0.024039022624492645
1783338288389578200,0.070578125,-0.0007209177128970623,-0.05205840617418289,-0.03132915869355202
1783338288399551500,0.080551513671875,-0.0021022993605583906,0.012109659612178802,0.005113535560667515
1783338288409523500,0.0905234375,-0.0038461373187601566,0.043708864599466324,0.022121280431747437
1783338288419496200,0.10049609375,-0.0006372944335453212,-0.00430260319262743,-0.004860535264015198
1783338288429469400,0.110469482421875,-0.0005973470397293568,-0.04664633050560951,-0.029038310050964355
1783338288439441400,0.12044140625,-0.0035065840929746628,-0.01569826900959015,-0.009984190575778484
1783338288449414400,0.130414306640625,-0.0025513083674013615,0.029394106939435005,0.015898538753390312
1783338288459387400,0.140387451171875,-0.0012634035665541887,0.01660161279141903,0.007481884676963091
1783338288469359400,0.150359375,-0.0007925567333586514,-0.030402114614844322,-0.017529726028442383
1783338288479332400,0.160332275390625,-0.002296710154041648,-0.028744030743837357,-0.018398182466626167
1783338288489305600,0.1703056640625,-0.000975782226305455,0.011109109967947006,0.005830724723637104
1783338288499277300,0.18027734375,-0.0026080335956066847,0.022177740931510925,0.009305351413786411
1783338288509250300,0.190250244140625,-0.002083124592900276,-0.013717410154640675,-0.008702944032847881
1783338288519223600,0.2002236328125,-0.0014346449170261621,-0.031390946358442307,-0.017824536189436913
1783338288529195300,0.2101953125,-0.003355582943186164,-0.004884503781795502,-0.00398781755939126
1783338288539168300,0.220168212890625,-0.0025987126864492893,0.01870977133512497,0.008933840319514275
1783338288549141500,0.2301416015625,-0.0029979203827679157,0.0012295814231038094,-0.0005850964807905257
1783338288559113500,0.240113525390625,-0.0025422535836696625,-0.024514930322766304,-0.014400511048734188
1783338288569086200,0.250086181640625,-0.002005626680329442,-0.012675581499934196,-0.009007343091070652
1783338288579058400,0.260058349609375,-0.002748914761468768,0.008766593411564827,0.0043654534965753555
1783338288589031400,0.270031494140625,-0.0020383833907544613,0.0067604342475533485,0.0036887445021420717
1783338288599004400,0.28000439453125,-0.00210709311068058,-0.015873771160840988,-0.009266468696296215
1783338288608976400,0.289976318359375,-0.0015725966077297926,-0.01726953499019146,-0.01119006983935833
1783338288618949400,0.299949462890625,-0.001290834159590304,0.0018138790037482977,0.0010237190872430801
1783338288628922400,0.30992236328125,-0.002145176287740469,0.00803022924810648,0.0033401367254555225
1783338288638894300,0.319894287109375,0.00018801917030941695,-0.006833671126514673,-0.005124454386532307
1783338288648867300,0.329867431640625,-0.0008942894637584686,-0.016041284427046776,-0.00968644954264164
1783338288658840300,0.33984033203125,-0.0026354643050581217,-0.005340703297406435,-0.004482100252062082
1783338288668812300,0.349812255859375,-0.002150502521544695,0.0048975530080497265,0.002901247702538967
1783338288678785300,0.359785400390625,-0.0022154836915433407,-0.0026399914640933275,-0.0011193265672773123
1783338288688758300,0.36975830078125,-0.0021939121652394533,-0.011061172932386398,-0.007701861672103405
1783338288698730500,0.37973046875,-0.002865028567612171,-0.009170861914753914,-0.007561246864497662
1783338288708703200,0.389703125,-0.002329733222723007,0.003421362955123186,-0.00021252025908324867
1783338288718676200,0.39967626953125,-0.0014953649369999766,-0.00007376955909421667,-0.0008913599886000156
1783338288728648400,0.4096484375,-0.0035321505274623632,-0.010174340568482876,-0.007865912280976772
1783338288738621400,0.419621337890625,-0.003177950158715248,-0.00950855016708374,-0.006596916355192661
1783338288748593400,0.429593505859375,-0.0028818065766245127,0.00008495483780279756,-0.0018010957865044475
1783338288758566400,0.43956640625,-0.0009645969257690012,0.0020032296888530254,-0.0003741741238627583
1783338288768539400,0.449539306640625,-0.0012322446564212441,-0.007453921716660261,-0.005265069659799337
1783338288778511400,0.459511474609375,-0.0020964404102414846,-0.010152769275009632,-0.006478671915829182
1783338288788484400,0.469484375,-0.0028128307312726974,-0.0030802120454609394,-0.00242081331089139
1783338288798457300,0.479457275390625,-0.001588575541973114,0.0001246359315700829,-0.0006159891490824521
1783338288808429600,0.4894296875,-0.0015627428656443954,-0.00432976707816124,-0.0015776565996930003
1783338288818402300,0.49940234375,-0.004185956437140703,-0.008232363499701023,-0.006250705569982529
1783338288828375300,0.509375244140625,-0.002980343531817198,-0.00506906071677804,-0.004057059530168772
1783338288838347500,0.519347412109375,-0.002198439557105303,-0.002002164488658309,-0.0017560884589329362
1783338288848320500,0.529320556640625,-0.0012146678054705262,-0.0033537186682224274,-0.002380333375185728
1783338288858293200,0.539293212890625,-0.002703374717384577,-0.009133310988545418,-0.005076251458376646
1783338288868265500,0.549265380859375,-0.0013379721203818917,-0.0073231603018939495,-0.0024200144689530134
1783338288878238500,0.559238525390625,-0.003172091208398342,-0.002419215627014637,-0.002778475871309638
1783338288888210200,0.569210205078125,-0.0018900453578680754,-0.0029049760196357965,-0.001722532557323575
1783338288898183400,0.579183349609375,-0.003867176128551364,-0.007084541022777557,-0.0038930089212954044
1783338288908156400,0.589156494140625,-0.0025158883072435856,-0.007252852898091078,-0.0036605149507522583
1783338288918128400,0.59912841796875,-0.0014242585748434067,-0.0026466494891792536,-0.0038304245099425316
1783338288928101400,0.609101318359375,-0.0023877902422100306,-0.0033907366450875998,-0.0027081684675067663
1783338288938074400,0.619074462890625,-0.0011595403775572777,-0.005441637244075537,-0.004567587748169899
1783338288948046300,0.62904638671875,-0.002161954063922167,-0.006699181627482176,-0.0051596080884337425
1783338288958019600,0.63901953125,-0.0025987126864492893,-0.0026519757229834795,-0.0037529265973716974
1783338288967992300,0.648992431640625,-0.001401089015416801,-0.0013339773286134005,-0.0018703379901126027
1783338288977964300,0.65896435546875,-0.001876995898783207,-0.0031284152064472437,-0.0036703685764223337
1783338288987937500,0.6689375,-0.0016756609547883272,-0.00669385539367795,-0.003939880523830652
1783338288997910500,0.67891064453125,-0.0008905610884539783,-0.005082909017801285,-0.004263188224285841
1783338289007882200,0.68888232421875,-0.0014197311829775572,-0.0043619913049042225,-0.002578738844022155
1783338289017855500,0.69885546875,0.0000697748182574287,-0.00443975580856204,-0.002557966159656644
1783338289027828500,0.708828369140625,-0.000517718493938446,-0.004904743749648333,-0.0037713022902607918
1783338289037800200,0.71880029296875,-0.002811499172821641,-0.005222192499786615,-0.003582484321668744
1783338289047773400,0.7287734375,-0.001990979304537177,-0.003471696749329567,-0.0020775320008397102
1783338289057745400,0.738745361328125,-0.0017885789275169373,-0.0030192257836461067,-0.0035206989850848913
1783338289067718400,0.748718505859375,-0.003498594742268324,-0.006367085501551628,-0.0041702440939843655
1783338289077691400,0.75869140625,-0.002930009737610817,-0.0054818508215248585,-0.005622465629130602
1783338289087662800,0.768662841796875,-0.0017845842521637678,-0.003117230022326112,-0.0023278691805899143
1783338289097636000,0.778635986328125,-0.0029502499382942915,-0.003572896821424365,-0.0036104475148022175
1783338289107609000,0.788609130859375,-0.0014333132421597838,-0.0057372478768229485,-0.0024170849937945604
1783338289117581000,0.7985810546875,-0.0016098808264359832,-0.0046445527113974094,-0.0034163030795753
1783338289127554000,0.808553955078125,-0.0033249566331505775,-0.0037670412566512823,-0.00401657959446311
1783338289137527000,0.818527099609375,-0.0010871023405343294,-0.0024024376180022955,-0.002603506203740835
1783338289147499000,0.8284990234375,-0.0013651363551616669,-0.0036373452749103308,-0.004128965083509684
1783338289157472300,0.83847216796875,-0.0029851372819393873,-0.005817409139126539,-0.004288488067686558
1783338289167444000,0.84844384765625,-0.001032507512718439,-0.004342284053564072,-0.004572381265461445
1783338289177417000,0.8584169921875,-0.001957423286512494,-0.0029233519453555346,-0.00321843009442091
1783338289187390200,0.86839013671875,-0.001888980157673359,-0.004231496714055538,-0.004193946253508329
1783338289197362000,0.87836181640625,-0.0018226674292236567,-0.006851247977465391,-0.00461658975109458
1783338289207335000,0.8883349609375,-0.0025329324416816235,-0.005132710561156273,-0.002784334821626544
1783338289217308200,0.89830810546875,-0.0029577065724879503,-0.004039482679218054,-0.0017616810509935021
1783338289227280000,0.90827978515625,-0.0026557042729109526,-0.0034029872622340918,-0.0019659455865621567
1783338289237252900,0.9182529296875,-0.0016551546286791563,-0.00506826164200902,-0.00526586826890707
1783338289247226000,0.92822607421875,-0.0013097425689920783,-0.004578240215778351,-0.003480218816548586
1783338289257198000,0.938197998046875,-0.0012114719720557332,-0.004606735892593861,-0.005231247283518314
1783338289267170800,0.9481708984375,-0.0027110979426652193,-0.004005394410341978,-0.0036221654154360294
1783338289277144000,0.95814404296875,-0.0013195963110774755,-0.006573746912181377,-0.004199538845568895
1783338289287116000,0.968115966796875,-0.003132410114631057,-0.0057100835256278515,-0.0041153826750814915
1783338289297089000,0.978089111328125,-0.0010580739472061396,-0.005095159634947777,-0.0032490564044564962
1783338289307061000,0.98806103515625,-0.0020985708106309175,-0.004128965083509684,-0.0030836742371320724
1783338289317034000,0.998033935546875,-0.0010673949727788568,-0.0035803536884486675,-0.002808569697663188
1783338289327007000,1.008007080078125,-0.002377137541770935,-0.004786232952028513,-0.002201901515945792
1783338289336979000,1.01797900390625,-0.0011062771081924438,-0.005008607171475887,-0.0031909996178001165
1783338289346952000,1.027951904296875,-0.0016588830621913075,-0.004453870467841625,-0.0023377228062599897
1783338289356925000,1.037925048828125,-0.001904160133562982,-0.0035305526107549667,-0.0035534559283405542
1783338289366897200,1.047897216796875,-0.0012697952333837748,-0.00484349112957716,-0.003468500915914774
1783338289376870000,1.057869873046875,-0.0019768644124269485,-0.005215800832957029,-0.003148389048874378
1783338289386843000,1.0678427734375,-0.0002894856152124703,-0.003853061469271779,-0.005155613645911217
1783338289396815000,1.077815185546875,-0.001719603082165122,-0.004256796557456255,-0.003311374457553029
1783338289406788000,1.0877880859375,-0.001190166687592864,-0.005720736458897591,-0.00373028963804245
1783338289416760800,1.0977607421875,-0.0003709783486556262,-0.005123389419168234,-0.0031886028591543436
1783338289426733000,1.107733154296875,-0.0024176177103072405,-0.0051990230567753315,-0.0036645096261054277
1783338289436706000,1.1177060546875,-0.0023228090722113848,-0.0037819549906998873,-0.0026109630707651377
1783338289446678000,1.127677978515625,-0.0004040015337523073,-0.004421113524585962,-0.0035326832439750433
1783338289456651000,1.137651123046875,-0.0012743226252496243,-0.005379052832722664,-0.004191815387457609
1783338289466624000,1.1476240234375,-0.0026104305870831013,-0.003932956140488386,-0.00330205331556499
1783338289476596200,1.15759619140625,-0.0018239989876747131,-0.0033571808598935604,-0.005104214418679476
1783338289486569000,1.16756884765625,-0.0017867147689685225,-0.002886067610234022,-0.0041734399273991585
1783338289496542000,1.1775419921875,-0.0012032161466777325,-0.004043743945658207,-0.004318581894040108
1783338289506514200,1.18751416015625,-0.0013499563792720437,-0.0041617220267653465,-0.002543052425608039
1783338289516487200,1.197487060546875,-0.0007195860962383449,-0.005327120888978243,-0.004520183429121971
1783338289526460000,1.2074599609375,-0.0006173207075335085,-0.004042412154376507,-0.0029550434555858374
1783338289536432000,1.21743212890625,-0.0021339908707886934,-0.003683950752019882,-0.004676776938140392
1783338289546405000,1.227405029296875,-0.0011182613670825958,-0.00495188171043992,-0.0031076427549123764
1783338289556376800,1.237376953125,-0.0013401026371866465,-0.005487443413585424,-0.004808870144188404
1783338289566350000,1.24735009765625,-0.0005515406373888254,-0.003808320267125964,-0.0037207023706287146
1783338289576323000,1.257322998046875,-0.0012314456980675459,-0.0032349417451769114,-0.0036943370942026377
1783338289586295000,1.267294921875,-0.0012948289513587952,-0.0057047572918236256,-0.0038242992013692856
1783338289596268000,1.27726806640625,-0.002311623888090253,-0.004462126176804304,-0.0033747577108442783
1783338289606241000,1.287240966796875,-0.0024924525059759617,-0.0043593281880021095,-0.00384453940205276
1783338289616213000,1.297212890625,-0.00166580721270293,-0.004571049474179745,-0.002638926263898611
1783338289626186200,1.307186279296875,-0.0011653993278741837,-0.005019259639084339,-0.0033665020018815994
1783338289636159000,1.317158935546875,-0.0012175972806289792,-0.004885302856564522,-0.003596598980948329
1783338289646131000,1.327130859375,-0.0017326525412499905,-0.004870122764259577,-0.003183809109032154
1783338289656104200,1.337104248046875,-0.0017153420485556126,-0.003359045134857297,-0.0025686188600957394
1783338289666076000,1.347075927734375,-0.0028357338160276413,-0.005275189410895109,-0.00507092522457242
1783338289676049000,1.357048828125,-0.0008468852029182017,-0.0035124430432915688,-0.0029052423778921366
1783338289686022100,1.367022216796875,-0.002569417702034116,-0.005275722127407789,-0.0035201662685722113
1783338289695993900,1.376993896484375,-0.002686863299459219,-0.003629089565947652,-0.003756921272724867
1783338289705966800,1.386966796875,-0.002192580606788397,-0.0046549392864108086,-0.003469033632427454
1783338289715940000,1.396940185546875,-0.0027917916886508465,-0.005663478281348944,-0.004869057331234217
1783338289725912000,1.406912109375,-0.0007731156656518579,-0.004628574009984732,-0.002260491019114852
1783338289735884800,1.416884765625,-0.0013424995122477412,-0.003049585735425353,-0.0033888723701238632
1783338289745858000,1.426858154296875,-0.0006838997360318899,-0.005690109916031361,-0.003913248889148235
1783338289755830000,1.436830078125,-0.0029933929909020662,-0.004876248072832823,-0.0033622407354414463
1783338289765803000,1.446802978515625,-0.0027355989441275597,-0.005061870440840721,-0.0035156388767063618
1783338289775775000,1.45677490234375,-0.0023246733471751213,-0.005224855616688728,-0.0033212280832231045
1783338289785748000,1.466748046875,-0.0007739146240055561,-0.003486610483378172,-0.003781156148761511
1783338289795721000,1.476720947265625,-0.0025800704024732113,-0.004883438348770142,-0.0033358754590153694
1783338289805693000,1.48669287109375,-0.0012655340833589435,-0.004400873556733131,-0.004836300387978554
1783338289815666000,1.496666015625,-0.00018242653459310532,-0.0026698189321905375,-0.004372377879917622
1783338289825639000,1.506638916015625,-0.0010021475609391928,-0.004236023873090744,-0.0036599822342395782
1783338289835611100,1.516611083984375,-0.0000476705827168189,-0.004355600103735924,-0.0036013927310705185
1783338289845584000,1.526583984375,-0.003064233111217618,-0.0044109937734901905,-0.002915895078331232
1783338289855556900,1.536556884765625,-0.000016777914424892515,-0.005164402071386576,-0.003979561384767294
1783338289865529000,1.546529052734375,-0.0012455604737624526,-0.004311125259846449,-0.0034384073223918676
1783338289875502000,1.556502197265625,-0.0015968313673511147,-0.004869590047746897,-0.004507666453719139
1783338289885474000,1.56647412109375,-0.001987783471122384,-0.005067729391157627,-0.004819256253540516
1783338289895447000,1.576447021484375,-0.002261023735627532,-0.0027244137600064278,-0.0020628846250474453
1783338289905420000,1.586419921875,-0.002367816399782896,-0.006164418999105692,-0.004145476501435041
1783338289915392000,1.59639208984375,-0.0029731530230492353,-0.004455202259123325,-0.003537476761266589
1783338289925365000,1.606364990234375,-0.001449292292818427,-0.005018726922571659,-0.00424135010689497
1783338289935338000,1.616337890625,-0.00088976213010028,-0.00509808911010623,-0.0028964539524167776
1783338289945310200,1.626310302734375,-0.002097505610436201,-0.004340420011430979,-0.003507383167743683
1783338289955283000,1.636282958984375,-0.0021499700378626585,-0.005858155433088541,-0.004129231441766024
1783338289965256000,1.646255859375,-0.001957423286512494,-0.003712712787091732,-0.0020852552261203527
1783338289975228200,1.656228271484375,-0.001374723738990724,-0.004533499013632536,-0.003498861100524664
1783338289985201200,1.666201171875,-0.002573678968474269,-0.004640025552362204,-0.003922570031136274
1783338289995172900,1.6761728515625,-0.0025217472575604916,-0.004920190200209618,-0.0036136433482170105
1783338290005146000,1.68614599609375,-0.002516953507438302,-0.005335110705345869,-0.004621649626642466
1783338290015119000,1.696119140625,-0.0014024205738678575,-0.0057620154693722725,-0.0032288164366036654
1783338290025090800,1.7060908203125,-0.00005406216951087117,-0.003175020683556795,-0.0024232103023678064
1783338290035064000,1.71606396484375,-0.0012370382901281118,-0.004473844077438116,-0.002758235903456807
1783338290045037000,1.726037109375,-0.0020421119406819344,-0.004554538056254387,-0.003921770956367254
1783338290055009000,1.736009033203125,-0.0027286747936159372,-0.0049707903526723385,-0.004277036525309086
1783338290064982000,1.74598193359375,-0.0015931029338389635,-0.004577441141009331,-0.0040826257318258286
1783338290074955000,1.755955078125,-0.0027017768006771803,-0.004257861990481615,-0.00444002216681838
1783338290084927000,1.765927001953125,-0.001898034941405058,-0.005147890187799931,-0.004733768757432699
1783338290094901000,1.77590087890625,-0.0016532903537154198,-0.004150536376982927,-0.004572647623717785
1783338290104873000,1.785873046875,-0.0028583707753568888,-0.004427238833159208,-0.003884752979502082
1783338290114846000,1.795845947265625,-0.002281796419993043,-0.0033787523861974478,-0.002880475018173456
1783338290124819000,1.80581884765625,-0.0016743293963372707,-0.003787281457334757,-0.002873817225918174
1783338290134791000,1.815791015625,-0.00392736354842782,-0.0037476003635674715,-0.003982224967330694
1783338290144764000,1.825763916015625,-0.002511627273634076,-0.005585181526839733,-0.00484349112957716
1783338290154737000,1.83573681640625,-0.0011792477453127503,-0.0026205505710095167,-0.0016612798208370805
1783338290164709000,1.845709228515625,-0.0020032296888530254,-0.004856008104979992,-0.004226170480251312
1783338290174681900,1.855681884765625,-0.001820803270675242,-0.00433136522769928,-0.0034882084000855684
1783338290184654800,1.86565478515625,-0.0019949739798903465,-0.004376106429845095,-0.0029976540245115757
1783338290194627000,1.875626953125,-0.0031827439088374376,-0.005865079816430807,-0.005311142187565565
1783338290204599800,1.885599853515625,-0.001586178783327341,-0.005477855913341045,-0.0037491980474442244
1783338290214572000,1.895572021484375,-0.0018495653057470918,-0.004968393128365278,-0.0029374666046351194
1783338290224545000,1.905544921875,-0.003454119898378849,-0.0033278861083090305,-0.00373055599629879
1783338290234518000,1.91551806640625,-0.0023521038237959146,-0.005381449591368437,-0.004418983124196529
1783338290244490000,1.925489990234375,-0.0020546286832541227,-0.0051984903402626514,-0.00478436890989542
1783338290254463000,1.935462890625,-0.002966495230793953,-0.005102883093059063,-0.00501206936314702
1783338290264436000,1.94543603515625,-0.0038514635525643826,-0.004935370292514563,-0.004202734678983688
1783338290274408000,1.955407958984375,-0.0023148194886744022,-0.0052173989824950695,-0.003594202222302556
1783338290284381000,1.965380859375,-0.001957689644768834,-0.005249889567494392,-0.0026261431630700827
1783338290294354000,1.97535400390625,-0.0022178804501891136,-0.004511927254498005,-0.0036008600145578384
1783338290304326100,1.985326171875,-0.0006149238906800747,-0.005275455769151449,-0.004539624322205782
1783338290314299000,1.995298828125,-0.0020189424976706505,-0.005305283237248659,-0.006089051254093647
1783338290324270800,2.005270751953125,-0.002025333931669593,-0.004564391914755106,-0.002668753731995821
1783338290334244000,2.015244140625,-0.002626942005008459,-0.005310609471052885,-0.003742273896932602
1783338290344217000,2.025217041015625,-0.001648230361752212,-0.0048916940577328205,-0.004001932218670845
1783338290354188800,2.035188720703125,-0.0020471718162298203,-0.00490154791623354,-0.0035989959724247456
1783338290364162000,2.045162109375,-0.0013278521364554763,-0.0034727619495242834,-0.0025395904667675495
1783338290374135000,2.055135009765625,-0.0009683253592811525,-0.004476507660001516,-0.0022652847692370415
1783338290384106800,2.065106689453125,-0.0010426276130601764,-0.004828311037272215,-0.0032783513888716698
1783338290394080000,2.075080078125,-0.001413339632563293,-0.004744155332446098,-0.004275438841432333
1783338290404052000,2.085052001953125,-0.002079928759485483,-0.004308728501200676,-0.003254382871091366
1783338290414025000,2.09502490234375,-0.0017222663154825568,-0.0048855687491595745,-0.004428570624440908
1783338290423998000,2.104998046875,-0.00006418218254111707,-0.004535629414021969,-0.003981159534305334
1783338290433970000,2.114969970703125,-0.0011648666113615036,-0.004708202555775642,-0.0027169568929821253
1783338290443943000,2.12494287109375,-0.0018138790037482977,-0.005775597412139177,-0.003905259305611253
1783338290453916200,2.134916259765625,-0.0022176143247634172,-0.003817108692601323,-0.002909769769757986
1783338290463888000,2.144887939453125,-0.0011432950850576162,-0.00412390474230051,-0.004807804711163044
1783338290473860900,2.15486083984375,-0.0018612833227962255,-0.004829642828553915,-0.004181961994618177
1783338290483834000,2.164834228515625,-0.0030162963084876537,-0.004092479590326548,-0.002919090911746025
1783338290493805800,2.174805908203125,-0.0018554243724793196,-0.004716990981251001,-0.0033390712924301624
1783338290503778800,2.18477880859375,-0.002558232517912984,-0.004542287439107895,-0.0030069751664996147
1783338290513751000,2.1947509765625,-0.0012341088149696589,-0.005811283830553293,-0.0027531760279089212
1783338290523724000,2.20472412109375,-0.003306048223748803,-0.0035233621019870043,-0.0036661075428128242
1783338290533696800,2.21469677734375,-0.0018200043123215437,-0.003576625371351838,-0.0032091091852635145
1783338290543669000,2.2246689453125,-0.0017973673529922962,-0.004421912599354982,-0.003991545643657446
1783338290553642000,2.23464208984375,-0.002498843939974904,-0.0038219024427235126,-0.004569185432046652
1783338290563615000,2.244614990234375,-0.001544100814498961,-0.0062581622041761875,-0.0023305322974920273
1783338290573587000,2.2545869140625,-0.0018929748330265284,-0.004347610287368298,-0.003233610186725855
1783338290583560000,2.264559814453125,-0.0010671286145225167,-0.00475507415831089,-0.0018969696247950196
1783338290593533000,2.274532958984375,-0.0033276197500526905,-0.004899683874100447,-0.0034972631838172674
1783338290603505000,2.2845048828125,-0.0011464908020570874,-0.005194761790335178,-0.003501790575683117
1783338290613478000,2.294477783203125,-0.0024232103023678064,-0.0033888723701238632,-0.0030453247018158436
1783338290623450000,2.3044501953125,-0.0015326491557061672,-0.004248807206749916,-0.002710032742470503
1783338290633423000,2.314423095703125,-0.001472728094086051,-0.004250937607139349,-0.004236290231347084
1783338290643395800,2.324395751953125,-0.0021939121652394533,-0.004416053649038076,-0.004203799646347761
1783338290653368000,2.3343681640625,-0.003058374160900712,-0.005203550215810537,-0.0029976540245115757
1783338290663341000,2.344341064453125,-0.002567287301644683,-0.003456516657024622,-0.003662378992885351
1783338290673313800,2.354313720703125,-0.002029328839853406,-0.005897836294025183,-0.004007524810731411
1783338290683286000,2.3642861328125,-0.0006253102328628302,-0.0033654365688562393,-0.003462641965597868
1783338290693259000,2.374259033203125,-0.0018317222129553556,-0.004905809182673693,-0.004333229269832373
1783338290703231000,2.38423095703125,-0.0023513049818575382,-0.00475320965051651,-0.004069310147315264
1783338290713204000,2.394203857421875,-0.002569417702034116,-0.002856240142136812,-0.002127865795046091
1783338290723177000,2.404177001953125,-0.0017425062833353877,-0.004599811974912882,-0.004888232331722975
1783338290733149000,2.41414892578125,0.00020532972121145576,-0.004097007215023041,-0.004083158448338509
1783338290743122000,2.424121826171875,-0.001210406655445695,-0.004607002250850201,-0.0035750274546444416
1783338290753095000,2.434094970703125,-0.002235191175714135,-0.00475587323307991,-0.003180613275617361
1783338290763067000,2.44406689453125,-0.0014048174489289522,-0.004945490043610334,-0.0038687740452587605
1783338290773040000,2.4540400390625,-0.002428004052489996,-0.005447229836136103,-0.0035630431957542896
1783338290783012900,2.464012939453125,-0.0010524812387302518,-0.0024399880785495043,-0.003001915058121085
1783338290792985000,2.473985107421875,-0.0012338425731286407,-0.005982525181025267,-0.004170776344835758
1783338290802958000,2.4839580078125,-0.002734533743932843,-0.004677309654653072,-0.00247540813870728
1783338290812929800,2.4939296875,-0.003561711637303233,-0.005548962391912937,-0.004839496221393347
1783338290822903000,2.503903076171875,-0.002208026824519038,-0.004432565066963434,-0.004099403973668814
1783338290832876000,2.5138759765625,-0.003403253620490432,-0.0046325684525072575,-0.002519616624340415
1783338290842848000,2.523847900390625,-0.003422162029892206,-0.004708468914031982,-0.003465837799012661
1783338290852821000,2.533821044921875,-0.001151284552179277,-0.0049375006929039955,-0.00418355967849493
1783338290862794000,2.5437939453125,-0.0014966964954510331,-0.0048799761570990086,-0.004772917367517948
1783338290872766000,2.553765869140625,-0.002126800362020731,-0.006040848325937986,-0.0028128307312726974
1783338290882739000,2.563739013671875,-0.0013941648649051785,-0.004059989005327225,-0.0038064562249928713
1783338290892711000,2.5737109375,-0.0017592841759324074,-0.0060296631418168545,-0.004249606281518936
1783338290902684000,2.583683837890625,-0.0006101301987655461,-0.0041521345265209675,-0.00427224300801754
1783338290912657000,2.593656982421875,-0.001886317040771246,-0.0018716695485636592,-0.002918558195233345
1783338290922628900,2.60362890625,-0.0024642229545861483,-0.0052118063904345036,-0.00430153775960207
1783338290932601900,2.613601806640625,-0.0037028591614216566,-0.004699147772043943,-0.003739078063517809
1783338290942575000,2.6235751953125,-0.0029846045654267073,-0.004388090688735247,-0.003984355367720127
1783338290952547000,2.633547119140625,-0.0023369237314909697,-0.004495415836572647,-0.002671949565410614
1783338290962519800,2.643519775390625,-0.001454618526622653,-0.0035918052308261395,-0.0034615767654031515
1783338290972493000,2.6534931640625,-0.00192226970102638,-0.004024036228656769,-0.0042144525796175
1783338290982465000,2.663465087890625,-0.003326021833345294,-0.004421912599354982,-0.004256263840943575
1783338290992438000,2.67343798828125,-0.0017592841759324074,-0.00407623453065753,-0.003222425002604723
1783338291002410000,2.683409912109375,-0.0017515610670670867,-0.005212338641285896,-0.003150519449263811
1783338291012383000,2.693383056640625,-0.0025856629945337772,-0.004845088813453913,-0.003148122690618038
1783338291022356000,2.70335595703125,-0.0017305220244452357,-0.004686630796641111,-0.003371029393747449
1783338291032328000,2.713327880859375,-0.0005467469454742968,-0.0034373418893665075,-0.0032229574862867594
1783338291042301000,2.723301025390625,-0.0012799152173101902,-0.004699147772043943,-0.0035744947381317616
1783338291052274000,2.73327392578125,-0.0018820558907464147,-0.005540173966437578,-0.004765193909406662
1783338291062246100,2.74324609375,-0.0024945829063653946,-0.005576659459620714,-0.004709533881396055
1783338291072219000,2.753218994140625,-0.0023430490400642157,-0.003909520339220762,-0.0025784724857658148
1783338291082191000,2.763191162109375,-0.002581934677436948,-0.004896221682429314,-0.0036304211243987083
1783338291092163300,2.773163330078125,-0.0030775489285588264,-0.006326871924102306,-0.0038458709605038166
1783338291102136300,2.78313623046875,-0.0019893813878297806,-0.006268016062676907,-0.004406466148793697
1783338291112108300,2.7931083984375,-0.0025595640763640404,-0.00310604483820498,-0.0041609229519963264
1783338291122081300,2.803081298828125,-0.0011776498286053538,-0.00435986090451479,-0.00324799120426178
1783338291132054300,2.81305419921875,-0.0031435952987521887,-0.005264803301542997,-0.00461552431806922
1783338291142026500,2.823026611328125,-0.00321816373616457,-0.004861067980527878,-0.003127083647996187
1783338291151999200,2.832999267578125,-0.001954760169610381,-0.0056741307489573956,-0.0034581145737320185
1783338291161971500,2.842971435546875,-0.003055178327485919,-0.004010187927633524,-0.004385161213576794
1783338291171944400,2.8529443359375,-0.0012141350889578462,-0.0051721250638365746,-0.002927080262452364
1783338291181917400,2.86291748046875,-0.0011057445080950856,-0.0054823835380375385,-0.003123355330899358
1783338291191889400,2.872889404296875,-0.0017744642682373524,-0.0043590618297457695,-0.00430207047611475
1783338291201862400,2.8828623046875,-0.0014330470003187656,-0.004525243304669857,-0.0037862160243093967
1783338291211835400,2.89283544921875,-0.0020122844725847244,-0.003622697899118066,-0.0036245621740818024
1783338291221807400,2.902807373046875,-0.0026610305067151785,-0.005161472596228123,-0.0026442527305334806
1783338291231780400,2.9127802734375,-0.0012229235144332051,-0.0042706448584795,-0.004200603812932968
1783338291241753300,2.92275341796875,-0.0020149475894868374,-0.0031316110398620367,-0.003944940399378538
1783338291251725300,2.932725341796875,-0.0023345269728451967,-0.004397145472466946,-0.0035606464371085167
1783338291261698300,2.9426982421875,-0.001734250457957387,-0.005140699911862612,-0.004519650712609291
1783338291271670300,2.952670166015625,-0.00221921200864017,-0.004169445019215345,-0.004057059530168772
1783338291281643300,2.962643310546875,-0.0015811186749488115,-0.004316451493650675,-0.001977929612621665
1783338291291616500,2.972616455078125,-0.0003201119543518871,-0.0038685076870024204,-0.002951315138489008
1783338291301588200,2.982588134765625,-0.0012154667638242245,-0.005916744936257601,-0.003941478207707405
1783338291311561500,2.9925615234375,-0.0008024104172363877,-0.0039023298304528,-0.0027710190042853355
1783338291321534500,3.002534423828125,-0.0024498419370502234,-0.004794488660991192,-0.004470914602279663
1783338291331506200,3.012506103515625,-0.001651426195167005,-0.0048424256965518,-0.0028037759475409985
1783338291341479400,3.0224794921875,-0.0026192190125584602,-0.004041080828756094,-0.002915895078331232
1783338291351451400,3.032451416015625,-0.0018844527658075094,-0.004337490536272526,-0.003341201925650239
1783338291361424400,3.04242431640625,-0.002567553659901023,-0.003513242118060589,-0.00384427304379642
1783338291371397400,3.0523974609375,-0.003923369105905294,-0.004248274490237236,-0.003810983384028077
1783338291381369300,3.062369384765625,-0.0016519587952643633,-0.005264536943286657,-0.0043590618297457695
1783338291391342300,3.07234228515625,-0.004090615548193455,-0.005241633392870426,-0.004232561681419611
1783338291401315300,3.0823154296875,-0.0032831449061632156,-0.005367601290345192,-0.002808036981150508
1783338291411287300,3.092287353515625,-0.0007044061203487217,-0.005055212415754795,-0.0023869911674410105
1783338291421260300,3.10226025390625,-0.002716158051043749,-0.004860535264015198,-0.0038602519780397415
1783338291431233300,3.1122333984375,-0.0020514330826699734,-0.005751895252615213,-0.0020325244404375553
1783338291441205200,3.122205322265625,-0.0006748450105078518,-0.004091946873813868,-0.003768372815102339
1783338291451178200,3.13217822265625,-0.002575543010607362,-0.004052266012877226,-0.004573978949338198
1783338291461150500,3.142150390625,-0.0018660769565030932,-0.004715392831712961,-0.0031212246976792812
1783338291471123500,3.15212353515625,-0.0028823392931371927,-0.005108209326863289,-0.0037984666414558887
1783338291481096200,3.16209619140625,-0.001954493811354041,-0.002800047630444169,-0.0030117689166218042
1783338291491068400,3.172068359375,-0.0033483924344182014,-0.004855741746723652,-0.004038417246192694
1783338291501041400,3.18204150390625,-0.0031641016248613596,-0.0052323127165436745,-0.0034791536163538694
1783338291511013400,3.192013427734375,-0.003385410411283374,-0.0051782503724098206,-0.002880208659917116
1783338291520986400,3.201986328125,-0.001939580193720758,-0.005053347907960415,-0.003980893176048994
1783338291530959400,3.21195947265625,-0.002828276949003339,-0.005601160228252411,-0.003968642558902502
1783338291540931600,3.221931640625,-0.0009624664089642465,-0.0052112736739218235,-0.003916711080819368
1783338291550904300,3.231904296875,-0.002014681464061141,-0.00538411270827055,-0.0030858046375215054
1783338291560877300,3.241877197265625,-0.0007592672482132912,-0.004487959202378988,-0.004248008131980896
1783338291570849500,3.251849609375,-0.0026522420812398195,-0.00490234699100256,-0.0037446708884090185
1783338291580822500,3.261822509765625,-0.002359027974307537,-0.0060238041914999485,-0.004217382054775953
1783338291590795300,3.271795166015625,-0.0021576930303126574,-0.004189152270555496,-0.0046759783290326595
1783338291600767500,3.281767578125,-0.0037923413328826427,-0.004414988216012716,-0.0032557144295424223
1783338291610740500,3.291740478515625,-0.0014245248166844249,-0.004778776317834854,-0.0039044604636728764
1783338291620712200,3.301712158203125,-0.0033332123421132565,-0.00490208063274622,-0.0022498385515064
1783338291630685400,3.311685546875,-0.0013845774810761213,-0.0049345712177455425,-0.00373135507106781
1783338291640658400,3.321658447265625,-0.0009837717516347766,-0.006086121778935194,-0.004357464145869017
1783338291650630100,3.331630126953125,-0.0016700683627277613,-0.004636829718947411,-0.002922286745160818
1783338291660603400,3.341603271484375,-0.0018498316640034318,-0.005588111001998186,-0.004061320796608925
1783338291670576400,3.351576416015625,-0.002398442942649126,-0.004009388852864504,-0.0041638524271547794
1783338291680548400,3.36154833984375,-0.001582982949912548,-0.003180879633873701,-0.004385161213576794
1783338291690521300,3.371521240234375,0.00022770027862861753,-0.0028096348978579044,-0.004515922162681818
1783338291700493300,3.381493408203125,-0.002538258908316493,-0.005526059307157993,-0.004835501778870821
1783338291710466300,3.39146630859375,-0.00221921200864017,-0.006435262504965067,-0.0054885088466107845
1783338291720439600,3.401439453125,-0.0032951291650533676,-0.003996872343122959,-0.0024714134633541107
1783338291730411300,3.411411376953125,-0.0022064289078116417,-0.003712979145348072,-0.00192226970102638
1783338291740384300,3.42138427734375,-0.002865028567612171,-0.0035172367934137583,-0.0037089844699949026
1783338291750357500,3.431357421875,-0.0004926847759634256,-0.0027419906109571457,-0.003944141324609518
1783338291760329200,3.4413291015625,-0.0005547364708036184,-0.0043982104398310184,-0.00424161646515131
1783338291770302200,3.45130224609375,-0.0018072210950776935,-0.004324973560869694,-0.004001665860414505
1783338291780274400,3.4612744140625,-0.004023503512144089,-0.005818474106490612,-0.0038309572264552116
1783338291790247400,3.471247314453125,-0.001294029993005097,-0.0046208505518734455,-0.0025718146935105324
1783338291800220200,3.48122021484375,-0.0012269183062016964,-0.0055004931055009365,-0.0026490462478250265
1783338291810192400,3.4911923828125,-0.0013132047606632113,-0.004478904418647289,-0.003308711340650916
1783338291820165400,3.501165283203125,-0.000996554852463305,-0.003477555699646473,-0.002971288748085499
1783338291830138400,3.511138427734375,-0.0020687435753643513,-0.003915912006050348,-0.00290444353595376
1783338291840110300,3.5211103515625,-0.0027332021854817867,-0.005106344819068909,-0.0051713259890675545
1783338291850083300,3.531083251953125,-0.0013944311067461967,-0.005661880597472191,-0.005613144487142563
1783338291860055600,3.5410556640625,-0.002567020943388343,-0.0037856835406273603,-0.0028881982434540987
1783338291870028300,3.5510283203125,-0.002088717184960842,-0.006052299868315458,-0.002796319080516696
1783338291880001300,3.561001220703125,-0.0019028285751119256,-0.0049066077917814255,-0.0010101370280608535
1783338291889973500,3.570973388671875,-0.0038549257442355156,-0.0044080642983317375,-0.003067428944632411
1783338291899946500,3.580946533203125,-0.0008410262526012957,-0.004131894558668137,-0.0020900487434118986
1783338291909919200,3.590919189453125,-0.003239202778786421,-0.00216568261384964,-0.0036818201187998056
1783338291919891500,3.600891357421875,-0.0026586337480694056,-0.004192348103970289,-0.003855191869661212
1783338291929864400,3.610864501953125,-0.0014977618120610714,-0.005092230159789324,-0.0028458540327847004
1783338291939837400,3.62083740234375,-0.002373941708356142,-0.0034639735240489244,-0.0029973878990858793
1783338291949809400,3.630809326171875,-0.0028759476263076067,-0.0037736992817372084,-0.0026226809713989496
1783338291959782400,3.640782470703125,-0.0031403994653373957,-0.003224022686481476,-0.0027688886038959026
1783338291969754400,3.65075439453125,-0.001841575838625431,-0.004193413536995649,-0.0038754320703446865
1783338291979727400,3.660727294921875,-0.0021795309148728848,-0.0036722328513860703,-0.0034141724463552237
1783338291989700400,3.670700439453125,-0.001458080718293786,-0.005390504375100136,-0.003111371072009206
1783338291999672300,3.68067236328125,-0.001603489276021719,-0.00487278588116169,-0.005032841581851244
1783338292009645600,3.6906455078125,-0.002912965603172779,-0.005620335228741169,-0.0038898130878806114
1783338292019618300,3.700618408203125,-0.002995523624122143,-0.004602741450071335,-0.0029619678389281034
1783338292029590300,3.71059033203125,-0.00213638786226511,-0.004292482975870371,-0.0037444045301526785
1783338292039563500,3.7205634765625,-0.0035947347059845924,-0.004244812298566103,-0.004820588044822216
1783338292049535200,3.73053515625,-0.001961418194696307,-0.0048948898911476135,-0.0038748993538320065
1783338292059508200,3.74050830078125,-0.002168878447264433,-0.0043982104398310184,-0.002028529765084386
1783338292069481500,3.7504814453125,-0.002261290093883872,-0.005225388333201408,-0.002971288748085499
1783338292079453200,3.760453125,-0.0020660804584622383,-0.0046634613536298275,-0.00484402384608984
1783338292089427000,3.770427001953125,-0.0018783274572342634,-0.00743181724101305,-0.003512975759804249
1783338292099400000,3.78039990234375,-0.0010783139150589705,-0.00598518829792738,-0.004203533288091421
1783338292109372200,3.7903720703125,-0.0026770094409585,-0.004988633096218109,-0.0032557144295424223
1783338292119345200,3.80034521484375,-0.0017446368001401424,-0.005524727515876293,-0.003379551460966468
1783338292129317000,3.810317138671875,-0.003459712490439415,-0.004150004126131535,-0.004486893769353628
1783338292139290000,3.8202900390625,-0.0029846045654267073,-0.005020325072109699,-0.003260774305090308
1783338292149263000,3.83026318359375,-0.0018887137994170189,-0.004584898240864277,-0.003781422507017851
1783338292159235000,3.840235107421875,-0.0018431737553328276,-0.00523657351732254,-0.003897003596648574
1783338292169208000,3.8502080078125,-0.002752909669652581,-0.005505286622792482,-0.004846953321248293
1783338292179181000,3.86018115234375,-0.00040426786290481687,-0.005029646214097738,-0.004560663364827633
1783338292189153300,3.8701533203125,-0.0041217743419110775,-0.003200853243470192,-0.003640807466581464
1783338292199126000,3.8801259765625,-0.001386175281368196,-0.003674629610031843,-0.0036477316170930862
1783338292209098000,3.890097900390625,-0.00004021373388241045,-0.004874117206782103,-0.0046362970024347305
1783338292219071200,3.9000712890625,-0.0034581145737320185,-0.003930559381842613,-0.0021145499777048826
1783338292229044200,3.910044189453125,-0.00133877107873559,-0.004563592839986086,-0.0023299995809793472
1783338292239016000,3.920015869140625,-0.001246625673957169,-0.0036618465092033148,-0.0041547976434230804
1783338292248989200,3.9299892578125,-0.002180596347898245,-0.003964914008975029,-0.003922303672879934
1783338292258962200,3.939962158203125,-0.0016711335629224777,-0.0049620019271969795,-0.0033840788528323174
1783338292268934000,3.949933837890625,-0.0022011026740074158,-0.004197141621261835,-0.004518052563071251
1783338292278907100,3.9599072265625,-0.0014290522085502744,-0.004972654394805431,-0.0024370586033910513
1783338292288879000,3.969879150390625,-0.0020303940400481224,-0.0046634613536298275,-0.004628574009984732
1783338292298852000,3.97985205078125,-0.0011518171522766352,-0.003808320267125964,-0.0043984767980873585
1783338292308825000,3.9898251953125,-0.0028533106669783592,-0.004850681405514479,-0.00407410366460681
1783338292318797000,3.999797119140625,-0.0015686018159613013,-0.004501008428633213,-0.003453587181866169
1783338292328770000,4.00977001953125,-0.0012450277572497725,-0.004568119999021292,-0.003343598684296012
1783338292338743300,4.019743408203125,-0.0014242585748434067,-0.005066131241619587,-0.005382781382650137
1783338292348715000,4.029715087890625,-0.0010511496802791953,-0.0044197821989655495,-0.003966778516769409
1783338292358688000,4.03968798828125,-0.0016655409708619118,-0.003212304785847664,-0.00370126124471426
1783338292368660200,4.04966015625,-0.0009749832679517567,-0.00401524780318141,-0.004564924165606499
1783338292378633000,4.059633056640625,-0.0017659420846030116,-0.00315930787473917,-0.004119643941521645
1783338292388606000,4.06960595703125,-0.001525991247035563,-0.00541367381811142,-0.004223773255944252
1783338292398578200,4.079578125,-0.002719353651627898,-0.005620867945253849,-0.003114566905423999
1783338292408551200,4.08955126953125,-0.002635730430483818,-0.00355904852040112,-0.0031414648983627558
1783338292418524000,4.09952392578125,-0.0025981799699366093,-0.004268514458090067,-0.004061054438352585
1783338292428496100,4.10949609375,-0.003084473079070449,-0.005913282744586468,-0.0033750240691006184
1783338292438469000,4.11946923828125,-0.0018916432745754719,-0.004412857815623283,-0.002201901515945792
1783338292448441000,4.129441162109375,-0.0016080166678875685,-0.00336090917699039,-0.0032751555554568768
1783338292458414000,4.1394140625,-0.00020133497309871018,-0.0049010151997208595,-0.0036578518338501453
1783338292468387000,4.149386962890625,-0.0028850024100393057,-0.004512193612754345,-0.004110855516046286
1783338292478359000,4.159359130859375,-0.00267674308270216,-0.004911135416477919,-0.0033483924344182014
1783338292488332000,4.16933203125,-0.0022032330743968487,-0.004072239622473717,-0.00401578051969409
1783338292498305000,4.179304931640625,-0.0019315907265990973,-0.004292216617614031,-0.0034261567052453756
1783338292508277200,4.18927734375,-0.003311640815809369,-0.0052264537662267685,-0.0033862092532217503
1783338292518250000,4.19925,-0.0009763148264028132,-0.004862665664404631,-0.003394465195015073
1783338292528222200,4.20922216796875,-0.001460743835195899,-0.0043707797303795815,-0.004069842863827944
1783338292538195200,4.2191953125,-0.0007022755453363061,-0.004455468617379665,-0.002835467690601945
1783338292548168200,4.229168212890625,-0.002463690238073468,-0.004966262727975845,-0.003356115659698844
1783338292558140200,4.23914013671875,-0.001984853995963931,-0.005184642039239407,-0.002642122097313404
1783338292568113200,4.249113037109375,-0.0017776599852368236,-0.0054429685696959496,-0.004403803031891584
1783338292578086100,4.259086181640625,-0.0028876655269414186,-0.004039482679218054,-0.0033159018494188786
1783338292588058000,4.26905810546875,-0.0017467673169448972,-0.003834951901808381,-0.004515655804425478
1783338292598031000,4.279031005859375,-0.0019283948931843042,-0.004744421225041151,-0.0031699605751782656
1783338292608003000,4.289003173828125,-0.0010396981379017234,-0.0030514500103890896,-0.0030298782512545586
1783338292617976000,4.29897607421875,-0.002632800955325365,-0.005862416233867407,-0.003784085623919964
1783338292627949000,4.308948974609375,-0.001716673607006669,-0.004037618637084961,-0.004858937580138445
1783338292637921000,4.318921142578125,-0.0000828243064461276,-0.005435511935502291,-0.004276504274457693
1783338292647894300,4.328894287109375,-0.002600576728582382,-0.004782504867762327,-0.003495132550597191
1783338292657866000,4.338865966796875,-0.0022367890924215317,-0.004802212119102478,-0.003995007835328579
1783338292667839000,4.3488388671875,-0.002116147894412279,-0.002950782421976328,-0.0023608922492712736
1783338292677812200,4.358812255859375,-0.003072488820180297,-0.005372128449380398,-0.003582750679925084
1783338292687784200,4.3687841796875,-0.0010490191634744406,-0.004524177871644497,-0.0033723609521985054
1783338292697757000,4.3787568359375,-0.0009297095239162445,-0.004809136036783457,-0.002773149637505412
1783338292707730200,4.388730224609375,-0.0028969866689294577,-0.003916178364306688,-0.002927879337221384
1783338292717702100,4.3987021484375,-0.000788561999797821,-0.005011270288378,-0.004367318004369736
1783338292727675100,4.408675048828125,-0.0026019082870334387,-0.00577719509601593,-0.0030538467690348625
1783338292737647000,4.418647216796875,-0.0025276062078773975,-0.005083441734313965,-0.0026354643050581217
1783338292747620000,4.4286201171875,-0.002008289797231555,-0.004157727118581533,-0.003276220755651593
1783338292757593000,4.438593017578125,-0.0020037624053657055,-0.004492486361414194,-0.0036365464329719543
1783338292767565000,4.44856494140625,-0.0018410432385280728,-0.007464041467756033,-0.004624579101800919
1783338292777538000,4.4585380859375,-0.0025473134592175484,-0.004205397795885801,-0.0036850159522145987
1783338292787511000,4.468510986328125,-0.0008391620358452201,-0.0031529164407402277,-0.0018873822409659624
1783338292797483300,4.478483154296875,-0.0019166769925504923,-0.005882923025637865,-0.004535895772278309
1783338292807456000,4.4884560546875,-0.0017457021167501807,-0.005790777504444122,-0.0027244137600064278
1783338292817428200,4.49842822265625,-0.00276089902035892,-0.004140949342399836,-0.0020775320008397102
1783338292827401200,4.508401123046875,-0.0007595335482619703,-0.004751878324896097,-0.0038312235847115517
1783338292837374200,4.518374267578125,-0.0020996362436562777,-0.004839229863137007,-0.003403519745916128
1783338292847346200,4.52834619140625,-0.0017808558186516166,-0.005246693734079599,-0.0036669063847512007
1783338292857319200,4.538319091796875,-0.0017800568602979183,-0.0041185785084962845,-0.003710316028445959
1783338292867292200,4.548292236328125,-0.002951581496745348,-0.004316717851907015,-0.002947852946817875
1783338292877264100,4.55826416015625,-0.0024591628462076187,-0.004890362732112408,-0.002067944500595331
1783338292887237000,4.568237060546875,-0.00126739835832268,-0.004804076161235571,-0.0044317664578557014
1783338292897209000,4.578208984375,-0.0019230686593800783,-0.004324174486100674,-0.004014449194073677
1783338292907182300,4.588182373046875,-0.0023763386998325586,-0.004107659682631493,-0.0041310954838991165
1783338292917155000,4.598155029296875,-0.0031755531672388315,-0.005733252968639135,-0.0031992553267627954
1783338292927127000,4.608126953125,-0.002569950418546796,-0.005061337724328041,-0.003834685543552041
1783338292937100300,4.618100341796875,-0.0027896612882614136,-0.003949201665818691,-0.0036709012929350138
1783338292947073000,4.628072998046875,-0.0018421085551381111,-0.003739078063517809,-0.0019531622529029846
1783338292957045000,4.638044921875,-0.002198173198848963,-0.0038448055274784565,-0.0033755565527826548
1783338292967018200,4.648018310546875,-0.000957939017098397,-0.00566827179864049,-0.0055034225806593895
1783338292976990000,4.657989990234375,-0.00221947836689651,-0.003867975203320384,-0.003183010034263134
1783338292986963000,4.667962890625,-0.0008215851848945022,-0.0052046156488358974,-0.0036709012929350138
1783338292996936200,4.677936279296875,-0.00028069718973711133,-0.00646642129868269,-0.004681038204580545
1783338293006908200,4.687908203125,-0.0017422399250790477,-0.005613677203655243,-0.0034975295420736074
1783338293016881000,4.697880859375,-0.002141447737812996,-0.004777710884809494,-0.0035356127191334963
1783338293026854100,4.707854248046875,-0.002073537092655897,-0.004262655507773161,-0.0032117723021656275
1783338293036826000,4.717826171875,-0.0019507654942572117,-0.004625378176569939,-0.0027776770293712616
1783338293046799000,4.727799072265625,-0.000773381965700537,-0.004594751633703709,-0.004200870171189308
1783338293056771000,4.73777099609375,-0.002138784620910883,-0.005603823345154524,-0.003820038167759776
1783338293066744000,4.747744140625,-0.002776611829176545,-0.005320996046066284,-0.00358834327198565
1783338293076717000,4.757717041015625,-0.0016618125373497605,-0.004506068304181099,-0.004251203965395689
1783338293086689000,4.76768896484375,-0.0012650014832615852,-0.005864280741661787,-0.004025368019938469
1783338293096661500,4.77766162109375,-0.001582716591656208,-0.003919374197721481,-0.0032642364967614412
1783338293106634500,4.787634521484375,-0.0010157296201214194,-0.00407596817240119,-0.004099936690181494
1783338293116606700,4.797606689453125,-0.002659432590007782,-0.0040765004232525826,-0.003719104453921318
1783338293126579500,4.807579345703125,-0.0016535567119717598,-0.005349758081138134,-0.002722283359616995
1783338293136551700,4.8175517578125,-0.0024048343766480684,-0.005233111325651407,-0.0033997914288192987
1783338293146524700,4.827524658203125,-0.0016370450612157583,-0.0032623722217977047,-0.003224555402994156
1783338293156497700,4.83749755859375,-0.00205249828286469,-0.005304484162479639,-0.004536961205303669
1783338293166469600,4.8474697265625,-0.002764627570286393,-0.0054754591546952724,-0.003972637467086315
1783338293176442600,4.857442626953125,-0.0021020330023020506,-0.004028031136840582,-0.0025925873778760433
1783338293186414600,4.86741455078125,-0.0019707391038537025,-0.00541394017636776,-0.0033846113365143538
1783338293196387600,4.8773876953125,0.00005246427463134751,-0.004175570327788591,-0.0032567796297371387
1783338293206360600,4.887360595703125,-0.0005099953268654644,-0.005014466121792793,-0.003364904085174203
1783338293216332800,4.897332763671875,-0.0006788397440686822,-0.00418435875326395,-0.002695385366678238
1783338293226305500,4.907305419921875,-0.0015691345324739814,-0.0046570696868002415,-0.0038429414853453636
1783338293236278500,4.917278564453125,-0.0018274611793458462,-0.005263205152004957,-0.00392816262319684
1783338293246250800,4.927250732421875,-0.001770469476468861,-0.004462392535060644,-0.004040281753987074
1783338293256223700,4.9372236328125,-0.0034194989129900932,-0.004315119702368975,-0.004801679402589798
1783338293266195500,4.947195556640625,-0.0011289139511063695,-0.003948136232793331,-0.004837099462747574
1783338293276168700,4.957168701171875,-0.00316063966602087,-0.005625395104289055,-0.003288471372798085
1783338293286141700,4.9671416015625,-0.0016506272368133068,-0.004776113200932741,-0.0043803672306239605
1783338293296113400,4.977113525390625,-0.0012205267557874322,-0.00458569684997201,-0.0027142937760800123
1783338293306086700,4.987086669921875,-0.0014514228096231818,-0.006043511442840099,-0.004516721237450838
1783338293316059600,4.9970595703125,-0.0005965480813756585,-0.00603339122608304,-0.0036402747500687838
1783338293326031600,5.007031494140625,-0.001939580193720758,-0.005759884603321552,-0.0038432078436017036
1783338293336004600,5.017004638671875,-0.0005997438565827906,-0.004807271994650364,-0.004062119405716658
1783338293345976600,5.0269765625,-0.0014202637830749154,-0.004567587748169899,-0.003981159534305334
1783338293355949600,5.036949462890625,-0.0016841830220073462,-0.004290086217224598,-0.0029465213883668184
1783338293365922800,5.0469228515625,-0.002235191175714135,-0.004006459377706051,-0.0037404096219688654
1783338293375894500,5.05689453125,-0.0007661914569325745,-0.0031550468411296606,-0.003707652911543846
1783338293385867500,5.066867431640625,-0.0024607607629150152,-0.0028613002505153418,-0.0036701022181659937
1783338293395839700,5.07683984375,-0.002639458980411291,-0.006403304636478424,-0.0033193640410900116
1783338293405812500,5.0868125,-0.00010839065362233669,-0.004620051942765713,-0.0025124261155724525
1783338293415785500,5.096785400390625,-0.0009097357979044318,-0.004510595928877592,-0.0021321268286556005
1783338293425757700,5.1067578125,-0.0013347762869670987,-0.004523379262536764,-0.004000866785645485
1783338293435730700,5.116730712890625,-0.001600559800863266,-0.004538292996585369,-0.003576891729608178
1783338293445703400,5.126703369140625,-0.0019121496006846428,-0.004774248693138361,-0.003686081152409315
1783338293455675600,5.136675537109375,-0.0025931198615580797,-0.004161987919360399,-0.003991545643657446
1783338293465648600,5.146648681640625,-0.001799764228053391,-0.0047087352722883224,-0.0013787185307592154
1783338293475620600,5.15662060546875,-0.002433863002806902,-0.0046120621263980865,-0.003634682158008218
1783338293485593600,5.166593505859375,-0.001847701147198677,-0.003947070799767971,-0.00395585922524333
1783338293495566600,5.176566650390625,-0.002879942301660776,-0.004187820944935083,-0.003430151380598545
1783338293505538800,5.186538818359375,-0.0015254586469382048,-0.00469568558037281,-0.0023331954143941402
1783338293515511600,5.196511474609375,-0.0022916500456631184,-0.00378994457423687,-0.0046821036376059055
1783338293525484500,5.206484619140625,-0.002435460686683655,-0.005152950529009104,-0.00404667342081666
1783338293535456800,5.216456787109375,-0.001972070662304759,-0.004996622912585735,-0.0023971113841980696
1783338293545429800,5.2264296875,-0.0036155073903501034,-0.005310343112796545,-0.004610198084264994
1783338293555401500,5.2364013671875,-0.0024700819049030542,-0.0027204190846532583,-0.0032466596458107233
1783338293565374700,5.246374755859375,-0.001660480978898704,-0.00427277572453022,-0.0018719359068199992
1783338293575347700,5.25634765625,-0.0020935109350830317,-0.003763312939554453,-0.0033654365688562393
1783338293585319400,5.2663193359375,-0.0006737797521054745,-0.004274373408406973,-0.0044469465501606464
1783338293595292700,5.276292724609375,-0.0014375743921846151,-0.0049529471434652805,-0.003561178920790553
1783338293605265700,5.286265625,-0.0015997608425095677,-0.004640025552362204,-0.004536961205303669
1783338293615237600,5.296237548828125,-0.0024343954864889383,-0.004519650712609291,-0.004307929426431656
1783338293625210600,5.306210693359375,-0.0019321233266964555,-0.00307648372836411,-0.003990480676293373
1783338293635182600,5.3161826171875,-0.0012903015594929457,-0.00216488353908062,-0.003433347214013338
1783338293645155600,5.326155517578125,-0.00233266269788146,-0.0036906085442751646,-0.0046477485448122025
1783338293655128800,5.33612890625,-0.0007334345718845725,-0.004724713973701,-0.0036674391012638807
1783338293665100500,5.3461005859375,-0.002953978255391121,-0.005391835700720549,-0.0027289411518722773
1783338293675073500,5.356073486328125,-0.0038898130878806114,-0.005391303449869156,-0.004400340840220451
1783338293685046800,5.366046875,-0.0023513049818575382,-0.003891677362844348,-0.003715642262250185
1783338293695018500,5.3760185546875,-0.004318315535783768,-0.004373176954686642,-0.0037936728913336992
1783338293704991500,5.385991455078125,-0.0007126618875190616,-0.003941478207707405,-0.005591573193669319
1783338293714964700,5.39596484375,-0.0020780644845217466,-0.004575577098876238,-0.0018674085149541497
1783338293724936400,5.4059365234375,-0.0008964200387708843,-0.0034613104071468115,-0.0032501218374818563
1783338293734909400,5.415909423828125,-0.0015108112711459398,-0.0043742419220507145,-0.003565173828974366
1783338293744881700,5.425881591796875,-0.0010639328975230455,-0.0035201662685722113,-0.0038104509003460407
1783338293754854700,5.435854736328125,-0.0019374496769160032,-0.003960653208196163,-0.003747866488993168
1783338293764827400,5.445827392578125,-0.0015065502375364304,-0.00452764006331563,-0.0018157431622967124
1783338293774799600,5.455799560546875,-0.0026173547375947237,-0.004531368613243103,-0.002769687445834279
1783338293784772600,5.465772705078125,-0.0028636970091611147,-0.0038013961166143417,-0.004058657679706812
1783338293794745600,5.47574560546875,-0.0022359900176525116,-0.002739860210567713,-0.002779274946078658
1783338293804717600,5.485717529296875,-0.0019835224375128746,-0.005167331546545029,-0.002897785510867834
1783338293814690600,5.495690673828125,-0.0010455570882186294,-0.004165716469287872,-0.0039087217301130295
1783338293824662800,5.505662841796875,-0.004460262134671211,-0.005903162993490696,-0.00418382603675127
1783338293834635500,5.515635498046875,-0.0015049523208290339,-0.005330583080649376,-0.003323358716443181
1783338293844608500,5.5256083984375,-0.0016429040115326643,-0.0035571842454373837,-0.003483148291707039
1783338293854580700,5.535580810546875,-0.003498861100524664,-0.005306348204612732,-0.0018402442801743746
1783338293864553700,5.5455537109375,-0.0021587584633380175,-0.00618066405877471,-0.003668770659714937
1783338293874525400,5.555525390625,-0.0017949705943465233,-0.005092496518045664,-0.004174771253019571
1783338293884498700,5.565498779296875,-0.0015696671325713396,-0.003908189013600349,-0.0030514500103890896
1783338293894471700,5.5754716796875,-0.0028663603588938713,-0.005141232628375292,-0.0036535905674099922
1783338293904443400,5.585443359375,-0.002953978255391121,-0.006051767151802778,-0.005598497111350298
1783338293914416600,5.595416748046875,-0.0027363980188965797,-0.0046568033285439014,-0.004287955816835165
1783338293924389600,5.6053896484375,-0.0014538196846842766,-0.003858121344819665,-0.0031459920573979616
1783338293934361600,5.615361572265625,-0.0015819176333025098,-0.00503949960693717,-0.004046939779073
1783338293944334600,5.62533447265625,-0.0016964336391538382,-0.004384628497064114,-0.0036525253672152758
1783338293954306600,5.635306640625,-0.0024471788201481104,-0.005429386626929045,-0.003856523660942912
1783338293964279600,5.645279541015625,-0.0014828480780124664,-0.005416070576757193,-0.002347576431930065
1783338293974252800,5.655252685546875,-0.0016460998449474573,-0.00512738386169076,-0.004249872639775276
1783338293984224500,5.665224609375,-0.0007249124464578927,-0.004412325099110603,-0.005402488633990288
1783338293994197500,5.675197509765625,-0.003183010034263134,-0.005315935704857111,-0.0031316110398620367
1783338294004169700,5.685169677734375,-0.0021614215802401304,-0.00452897185459733,-0.003370763035491109
1783338294014142500,5.695142578125,-0.0027973842807114124,-0.004248540848493576,-0.0032519858796149492
1783338294024114700,5.70511474609375,-0.0030208237003535032,-0.003413107246160507,-0.0036946034524589777
1783338294034087700,5.715087646484375,-0.0032599754631519318,-0.003952663857489824,-0.0027624969370663166
1783338294044060700,5.725060791015625,-0.001802960061468184,-0.003998203668743372,-0.0043808999471366405
1783338294054032600,5.73503271484375,-0.0013310478534549475,-0.005047223065048456,-0.003335076617076993
1783338294064005600,5.745005615234375,-0.002551840851083398,-0.004270112607628107,-0.0029284118209034204
1783338294073978600,5.754978515625,-0.0018293253378942609,-0.00541473925113678,-0.004735366906970739
1783338294083950600,5.76495068359375,-0.003309244057163596,-0.0054672034457325935,-0.004566788673400879
1783338294093924000,5.774924072265625,-0.0036485306918621063,-0.005037102848291397,-0.0041699777357280254
1783338294103895800,5.784895751953125,-0.0019084211671724916,-0.005485845264047384,-0.0033369408920407295
1783338294113869000,5.794869140625,-0.0020181434229016304,-0.0041553303599357605,-0.004107926040887833
1783338294123842000,5.804842041015625,-0.0019917781464755535,-0.004728176165372133,-0.0037470676470547915
1783338294133813800,5.814813720703125,-0.0033688987605273724,-0.003999002743512392,-0.004541488364338875
1783338294143787000,5.824787109375,-0.0013025520602241158,-0.004750546533614397,-0.0044133905321359634
1783338294153759000,5.834759033203125,-0.0031039142049849033,-0.005271727219223976,-0.003820837242528796
1783338294163732000,5.84473193359375,-0.002415487077087164,-0.003175020683556795,-0.004336158744990826
1783338294173705000,5.854705078125,-0.0027204190846532583,-0.004052798729389906,-0.002031192881986499
1783338294183677000,5.864677001953125,-0.002642122097313404,-0.004402738064527512,-0.0024972460232675076
1783338294193650000,5.87464990234375,-0.0015907060587778687,-0.004521781112998724,-0.0044048684649169445
1783338294203623200,5.884623046875,-0.0016165387351065874,-0.004336158744990826,-0.004732171073555946
1783338294213595000,5.894594970703125,-0.0019494339358061552,-0.0038567897863686085,-0.0034557178150862455
1783338294223568000,5.90456787109375,-0.003070891136303544,-0.00398568669334054,-0.004201669245958328
1783338294233540000,5.9145400390625,-0.0008069378091022372,-0.0037939392495900393,-0.004166515544056892
1783338294243512800,5.924512939453125,-0.0016977651976048946,-0.003920705523341894,-0.004801413044333458
1783338294253485800,5.93448583984375,-0.000978711643256247,-0.0035260252188891172,-0.004091946873813868
1783338294263458000,5.9444580078125,-0.001282312092371285,-0.003722300287336111,-0.004310326185077429
1783338294273431000,5.95443115234375,-0.00253453035838902,-0.002986468840390444,-0.002751844236627221
1783338294283403000,5.964403076171875,-0.002092179376631975,-0.005570534151047468,-0.003826696192845702
1783338294293376000,5.9743759765625,-0.00018748654110822827,-0.006117014680057764,-0.003771835006773472
1783338294303349000,5.984348876953125,-0.002124669961631298,-0.004886634182184935,-0.004459463059902191
1783338294313321000,5.994321044921875,-0.0004319647268857807,-0.00433136522769928,-0.0026794064324349165
1783338294323294000,6.0042939453125,-0.0022485069930553436,-0.0038400120101869106,-0.0016729978378862143
1783338294333267000,6.014266845703125,-0.0018466358305886388,-0.004985969979315996,-0.0027603665366768837
1783338294343239200,6.0242392578125,-0.0020881847012788057,-0.0036418726667761803,-0.0038842204958200455
1783338294353212000,6.0342119140625,-0.0009185242815874517,-0.004788363818079233,-0.004257062915712595
1783338294363183900,6.044183837890625,-0.0029854036401957273,-0.004014182835817337,-0.004069310147315264
1783338294373157000,6.0541572265625,0.00001651159800530877,-0.0044378917664289474,-0.003637611633166671
1783338294383130000,6.064130126953125,-0.0033659692853689194,-0.006050701718777418,-0.0020418455824255943
1783338294393101800,6.074101806640625,-0.002127066720277071,-0.005392901133745909,-0.0025928535033017397
1783338294403075000,6.084074951171875,-0.002947586588561535,-0.004344148561358452,-0.0032434638123959303
1783338294413047000,6.094047119140625,-0.0025427863001823425,-0.005420065484941006,-0.003861317178234458
1783338294423019800,6.104019775390625,-0.001041295938193798,-0.00577959232032299,-0.002513491315767169
1783338294432993000,6.113992919921875,-0.002543052425608039,-0.004032026045024395,-0.002746518002822995
1783338294442965000,6.123965087890625,-0.0017728663515299559,-0.003781156148761511,-0.00439075380563736
1783338294452938000,6.13393798828125,-0.0012013519881293178,-0.004335626028478146,-0.002712429501116276
1783338294462911000,6.143910888671875,-0.0030687605030834675,-0.005664543714374304,-0.003317499766126275
1783338294472883000,6.153883056640625,-0.002275671111419797,-0.0045572011731565,-0.002360359765589237
1783338294482856000,6.16385595703125,-0.003058107802644372,-0.004162254277616739,-0.00467651104554534
1783338294492828000,6.173827880859375,-0.0013366405619308352,-0.0049156625755131245,-0.0029585056472569704
1783338294502801000,6.18380078125,-0.002989664673805237,-0.004427505191415548,-0.0021616879384964705
1783338294512774000,6.19377392578125,-0.0015417039394378662,-0.004482632502913475,-0.002989931032061577
1783338294522746000,6.20374609375,-0.0018732674652710557,-0.0043990095146000385,-0.00361763802357018
1783338294532718800,6.21371875,-0.0033630398102104664,-0.0041100564412772655,-0.005019259639084339
1783338294542691000,6.223691162109375,-0.0025843314360827208,-0.003811516100540757,-0.0018530274974182248
1783338294552664000,6.2336640625,-0.0014391721924766898,-0.0049098036251962185,-0.002995789982378483
1783338294562637000,6.243636962890625,-0.002237587934359908,-0.004559331573545933,-0.004249073565006256
1783338294572609000,6.253609130859375,-0.0005789712304249406,-0.004397677723318338,-0.0033894050866365433
1783338294582582000,6.26358203125,-0.0009041432058438659,-0.003754258155822754,-0.002888997085392475
1783338294592555000,6.273554931640625,-0.0021105550695210695,-0.0041494714096188545,-0.0036882117856293917
1783338294602527000,6.28352685546875,-0.002156894188374281,-0.004560929723083973,-0.004159857518970966
1783338294612500000,6.2935,-0.00199364242143929,-0.004576908424496651,-0.0030570426024496555
1783338294622472000,6.303471923828125,-0.0015925703337416053,-0.0038511971943080425,-0.0035380094777792692
1783338294632445000,6.31344482421875,-0.0008058725506998599,-0.004772384651005268,-0.0027835359796881676
1783338294642418000,6.32341796875,-0.0020572920329868793,-0.004099137615412474,-0.004059989005327225
1783338294652390000,6.333389892578125,-0.000999484327621758,-0.00418462511152029,-0.0026969832833856344
1783338294662363100,6.343363037109375,-0.003668237943202257,-0.003896470880135894,-0.004131628200411797
1783338294672334800,6.3533349609375,-0.0020687435753643513,-0.004667189903557301,-0.0022913836874067783
1783338294682307800,6.363307861328125,-0.0016335829859599471,-0.006027532275766134,-0.0036072516813874245
1783338294692281000,6.373281005859375,-0.00284958234988153,-0.004041613079607487,-0.0025337315164506435
1783338294702252800,6.383252685546875,-0.0022205437999218702,-0.0027150926180183887,-0.003471164032816887
1783338294712225800,6.393225830078125,-0.0012125372886657715,-0.0044322991743683815,-0.0038898130878806114
1783338294722198000,6.403197998046875,-0.0017118799732998013,-0.004960137419402599,-0.002481533447280526
1783338294732171000,6.4131708984375,-0.0017097494564950466,-0.003739877138286829,-0.004225105047225952
1783338294742143700,6.423143798828125,-0.0016982977977022529,-0.0036133769899606705,-0.0025326660834252834
1783338294752116000,6.433115966796875,-0.0012002866715192795,-0.004979312419891357,-0.0028724854346364737
1783338294762089000,6.4430888671875,-0.001002413802780211,-0.00549250328913331,-0.004522580187767744
1783338294772062000,6.45306201171875,-0.002674346324056387,-0.005320996046066284,-0.0036045885644853115
1783338294782034000,6.463033935546875,-0.0016399745363742113,-0.00526640098541975,-0.003719104453921318
1783338294792007000,6.4730068359375,-0.0025931198615580797,-0.0030075078830122948,-0.00424321461468935
1783338294801979100,6.482979248046875,-0.0017757958266884089,-0.0021816615480929613,-0.00446798512712121
1783338294811951900,6.492951904296875,-0.0018343853298574686,-0.005392634775489569,-0.00472657848149538
1783338294821924900,6.5029248046875,-0.0016594156622886658,-0.00577959232032299,-0.0035537220537662506
1783338294831897000,6.51289697265625,-0.0014045510906726122,-0.005288505461066961,-0.002070873975753784
1783338294841870000,6.5228701171875,-0.002490321872755885,-0.005431783385574818,-0.0030599720776081085
1783338294851842000,6.532842041015625,-0.002805640222504735,-0.0049404301680624485,-0.004253867082297802
1783338294861815000,6.54281494140625,-0.0020754013676196337,-0.003966778516769409,-0.0029465213883668184
1783338294871788000,6.5527880859375,-0.0011917646043002605,-0.00469488650560379,-0.0041313618421554565
1783338294881760000,6.562760009765625,-0.0007403587806038558,-0.004228567238897085,-0.004005926661193371
1783338294891733000,6.57273291015625,-0.0028493159916251898,-0.004816326778382063,-0.0041095237247645855
1783338294901706000,6.5827060546875,-0.0029646309558302164,-0.005667739547789097,-0.002796319080516696
1783338294911678000,6.592677978515625,-0.0012780509423464537,-0.005676794331520796,-0.0049066077917814255
1783338294921651000,6.60265087890625,-0.0029406624380499125,-0.0041617220267653465,-0.004658934194594622
1783338294931623000,6.612622802734375,-0.0004929511342197657,-0.0031912659760564566,-0.003221359569579363
1783338294941596000,6.622595947265625,-0.002073803450912237,-0.0049255164340138435,-0.0036932716611772776
1783338294951569200,6.632569091796875,-0.0017275925492867827,-0.005646700505167246,-0.003019491909071803
1783338294961540900,6.642540771484375,-0.0012381036067381501,-0.004846953321248293,-0.002724680118262768
1783338294971514000,6.65251416015625,-0.0025220136158168316,-0.0052056810818612576,-0.0057066213339567184
1783338294981486000,6.662486083984375,-0.003388073528185487,-0.003757187630981207,-0.0029763488564640284
1783338294991458800,6.672458740234375,-0.0024743429385125637,-0.003915645647794008,-0.002035187790170312
1783338295001432000,6.68243212890625,-0.0012532835826277733,-0.005645102355629206,-0.004756139125674963
1783338295011404000,6.692404052734375,-0.0013273194199427962,-0.0053553506731987,-0.0035382758360356092
1783338295021377000,6.702376953125,-0.0019656792283058167,-0.0041524008847773075,-0.0028961875941604376
1783338295031349000,6.712348876953125,-0.0013084110105410218,-0.0035891421139240265,-0.0018495653057470918
1783338295041322000,6.722322021484375,-0.0013038836186751723,-0.006411560345441103,-0.0036788906436413527
1783338295051295000,6.732294921875,-0.001332912128418684,-0.003355582943186164,-0.0038863508962094784
1783338295061267000,6.742266845703125,-0.002837864449247718,-0.0027089675422757864,-0.0036613137926906347
1783338295071240000,6.752239990234375,-0.002656236756592989,-0.00464668357744813,-0.00390286254696548
1783338295081213000,6.762212890625,-0.0030487868934869766,-0.004883971065282822,-0.0036242958158254623
1783338295091184400,6.772184326171875,-0.00019148127466905862,-0.0040855552069842815,-0.003020290983840823
1783338295101157400,6.782157470703125,-0.002295911079272628,-0.004379035905003548,-0.004084756597876549
1783338295111129600,6.792129638671875,-0.0012807141756638885,-0.0048826392740011215,-0.002472745021805167
1783338295121102600,6.8021025390625,-0.002948119305074215,-0.0054448326118290424,-0.003054911969229579
1783338295131075300,6.812075439453125,-0.0022474415600299835,-0.006044842768460512,-0.0032168321777135134
1783338295141047600,6.822047607421875,-0.0028613002505153418,-0.004350806120783091,-0.0043840957805514336
1783338295151020500,6.8320205078125,-0.0035601137205958366,-0.0035198999103158712,-0.0031763522420078516
1783338295160992300,6.8419921875,-0.0029614351224154234,-0.004714594222605228,-0.002572879893705249
1783338295170965500,6.851965576171875,-0.0011994877131655812,-0.006728210020810366,-0.0041281660087406635
1783338295180938500,6.8619384765625,-0.002776345470920205,-0.004116980824619532,-0.0032796829473227262
1783338295190910500,6.871910400390625,-0.0026112294290214777,-0.0033571808598935604,-0.0023635553661733866
1783338295200883500,6.881883544921875,-0.0002836266648955643,-0.0038927425630390644,-0.0029052423778921366
1783338295210856400,6.8918564453125,-0.00180908537004143,-0.006656837183982134,-0.004742024466395378
1783338295220828400,6.901828369140625,-0.0015422365395352244,-0.0046237800270318985,-0.004833370912820101
1783338295230801700,6.9118017578125,-0.0013321131700649858,-0.00475374236702919,-0.0019262643763795495
1783338295240773400,6.9217734375,-0.0013512879377231002,-0.005486910697072744,-0.005310609471052885
1783338295250746400,6.931746337890625,-0.0023672839161008596,-0.0035382758360356092,-0.002629871480166912
1783338295260719600,6.9417197265625,-0.0035025894176214933,-0.004633633885532618,-0.003970507066696882
1783338295270691300,6.95169140625,-0.0019126823171973228,-0.005606752820312977,-0.003486610483378172
1783338295280664300,6.961664306640625,-0.002698048483580351,-0.005494900047779083,-0.0041428133845329285
1783338295290636500,6.971636474609375,-0.002507632365450263,-0.004205930046737194,-0.004474643152207136
1783338295300609500,6.981609619140625,-0.0011408982099965215,-0.0034525219816714525,-0.003585147438570857
1783338295310582300,6.991582275390625,-0.003221625927835703,-0.0043808999471366405,-0.004064782522618771
1783338295320554500,7.001554443359375,-0.0035388083197176456,-0.0038895467296242714,-0.0035712989047169685
1783338295330527500,7.011527587890625,-0.002409361768513918,-0.004195543937385082,-0.004834436345845461
1783338295340500500,7.02150048828125,-0.0027353328187018633,-0.006404103245586157,-0.004092479590326548
1783338295350472400,7.031472412109375,-0.0030836742371320724,-0.004255997482687235,-0.003413107246160507
1783338295360445400,7.041445556640625,-0.0017624800093472004,-0.00567040266469121,-0.0026109630707651377
1783338295370417400,7.05141748046875,-0.00155262288171798,-0.00452897185459733,-0.0028493159916251898
1783338295380390400,7.061390380859375,-0.001773132593370974,-0.004652009811252356,-0.002817890839651227
1783338295390363400,7.07136328125,-0.0023811322171241045,-0.005519933998584747,-0.002823749789968133
1783338295400335600,7.081335693359375,-0.0019853864796459675,-0.005083974450826645,-0.003912449814379215
1783338295410308400,7.091308349609375,-0.0017118799732998013,-0.005694104824215174,-0.0022447784431278706
1783338295420280600,7.101280517578125,-0.00019201391842216253,-0.0030357372015714645,-0.004998220596462488
1783338295430253600,7.111253662109375,-0.0008929579053074121,-0.00523604080080986,-0.0029859361238777637
1783338295440226600,7.1212265625,-0.003466636873781681,-0.005031510256230831,-0.003014432033523917
1783338295450198500,7.131198486328125,-0.0016844493802636862,-0.00433056615293026,-0.004096208140254021
1783338295460171500,7.141171630859375,-0.0018945727497339249,-0.0036037894897162914,-0.0031649006996303797
1783338295470144500,7.15114453125,-0.0010229201288893819,-0.007278152741491795,-0.003376355627551675
1783338295480116500,7.161116455078125,-0.002740659052506089,-0.004779042676091194,-0.0041129859164357185
1783338295490089500,7.17108935546875,-0.0026943201664835215,-0.00498064374551177,-0.0028091021813452244
1783338295500061400,7.1810615234375,-0.002609631512314081,-0.003500991500914097,-0.0037824877072125673
1783338295510034700,7.19103466796875,-0.0017827199772000313,-0.006469084415584803,-0.0036610474344342947
1783338295520007400,7.20100732421875,-0.001446096459403634,-0.0032048479188233614,-0.0033904702868312597
1783338295529979400,7.2109794921875,-0.0021379857789725065,-0.004986236337572336,-0.0038607846945524216
1783338295539952600,7.22095263671875,-0.0018722022650763392,-0.004408863373100758,-0.0037377465050667524
1783338295549924400,7.23092431640625,-0.002085787709802389,-0.004215251188725233,-0.003447994589805603
1783338295559897300,7.2408974609375,-0.0022362563759088516,-0.003436809405684471,-0.003338006092235446
1783338295569870600,7.25087060546875,-0.001460743835195899,-0.004588892683386803,-0.004098072182387114
1783338295579842600,7.260842529296875,-0.0013725932221859694,-0.004321511369198561,-0.004689293913543224
1783338295589815300,7.270815185546875,-0.0023526365403085947,-0.004293814767152071,-0.003966245800256729
1783338295599787500,7.28078759765625,-0.0015659386990591884,-0.004704474005848169,-0.0027885958552360535
1783338295609760500,7.290760498046875,-0.0026082999538630247,-0.004458930809050798,-0.0028487835079431534
1783338295619733500,7.3007333984375,-0.0003813646617345512,-0.0031915323343127966,-0.002764893928542733
1783338295629705500,7.31070556640625,-0.0027212179265916348,-0.005573197267949581,-0.0038842204958200455
1783338295639678500,7.320678466796875,-0.0007539408979937434,-0.005861084908246994,-0.0031515848822891712
1783338295649651500,7.3306513671875,-0.0012652678415179253,-0.0033539850264787674,-0.003323625074699521
1783338295659623400,7.34062353515625,-0.0022359900176525116,-0.004372644238173962,-0.004102333448827267
1783338295669596400,7.350596435546875,-0.0021313277538865805,-0.0059596216306090355,-0.004322044085711241
1783338295679568600,7.360568603515625,-0.0014053500490263104,-0.0046333675272762775,-0.0041731735691428185
1783338295689541600,7.370541748046875,-0.0019827233627438545,-0.001832787413150072,-0.0020061591640114784
1783338295699514400,7.380514404296875,-0.002543851500377059,-0.005309544038027525,-0.002769953804090619
1783338295709486600,7.390486572265625,-0.0006599313346669078,-0.004321245010942221,-0.00347435986623168
1783338295719459600,7.40045947265625,-0.000532632227987051,-0.003608849598094821,-0.0037864823825657368
1783338295729431300,7.410431396484375,-0.0022804648615419865,-0.003620034782215953,-0.0037268276792019606
1783338295739404500,7.420404541015625,-0.0027361316606402397,-0.005170793738216162,-0.0027060380671173334
1783338295749377500,7.43037744140625,-0.0016556872287765145,-0.006090649403631687,-0.004208060912787914
1783338295759349500,7.440349609375,-0.0021901836153119802,-0.003662112867459655,-0.004444549325853586
1783338295769322500,7.450322509765625,-0.0022447784431278706,-0.004005394410341978,-0.002808303339406848
1783338295779295500,7.46029541015625,-0.0020234698895365,-0.004089017398655415,-0.003853061469271779
1783338295789267500,7.470267333984375,-0.001746501075103879,-0.00487172044813633,-0.004923918284475803
1783338295799240700,7.48024072265625,-0.0021558289881795645,-0.005293831694871187,-0.0027718180790543556
1783338295809212400,7.49021240234375,-0.001907089608721435,-0.0025662221014499664,-0.003626692807301879
1783338295819185400,7.500185302734375,-0.0018008295446634293,-0.0031912659760564566,-0.0010359697043895721
1783338295829158700,7.51015869140625,-0.003576891729608178,-0.004787298385053873,-0.004603273700922728
1783338295839130400,7.52013037109375,-0.0010101370280608535,-0.0038663772866129875,-0.003628556849434972
1783338295849103400,7.530103271484375,-0.001187503570690751,-0.0027768779546022415,-0.00355878216214478
1783338295859075600,7.54007568359375,-0.0014948323369026184,-0.004071706905961037,-0.0026197514962404966
1783338295869048300,7.55004833984375,-0.0028037759475409985,-0.003918575122952461,-0.003981692250818014
1783338295879021300,7.560021240234375,-0.0021643510553985834,-0.0033867419697344303,-0.002787797013297677
1783338295888993500,7.56999365234375,-0.0009664611425250769,-0.004534830804914236,-0.0041675809770822525
1783338295898966500,7.579966552734375,-0.002888997085392475,-0.003888747887685895,-0.0035989959724247456
1783338295908938500,7.5899384765625,-0.002079928759485483,-0.003996605984866619,-0.003753725439310074
1783338295918911500,7.599911376953125,-0.0021046961192041636,-0.004315386060625315,-0.003111637430265546
1783338295928884500,7.609884521484375,-0.0022682142443954945,-0.005751895252615213,-0.0034349451307207346
1783338295938856400,7.6198564453125,-0.0035979305393993855,-0.004815527703613043,-0.004000866785645485
1783338295948829400,7.629829345703125,-0.0006684534018859267,-0.005147357936948538,-0.004918325692415237
1783338295958802400,7.639802490234375,-0.0021646174136549234,-0.003712446428835392,-0.003364637726917863
1783338295968774700,7.649774658203125,-0.00196408131159842,-0.00387356779538095,-0.0027087011840194464
1783338295978747400,7.659747314453125,-0.001892175991088152,-0.004929244983941317,-0.004899683874100447
1783338295988719400,7.66971923828125,-0.0020415792241692543,-0.00318940170109272,-0.003266633255407214
1783338295998692600,7.679692626953125,-0.002095108851790428,-0.004201136529445648,-0.0038338867016136646
1783338296008665600,7.68966552734375,-0.001005343277938664,-0.003932689782232046,-0.0047060721553862095
1783338296018637300,7.69963720703125,-0.001981658162549138,-0.004862399306148291,-0.0031582426745444536
1783338296028610600,7.709610595703125,-0.002901514060795307,-0.005399825517088175,-0.004180630203336477
1783338296038582500,7.71958251953125,-0.002576075727120042,-0.004216050263494253,-0.002510561840608716
1783338296048555300,7.72955517578125,-0.001395230065099895,-0.004462925251573324,-0.0030370689928531647
1783338296058528500,7.739528564453125,-0.0026325348298996687,-0.004070109222084284,-0.00381417921744287
1783338296068500500,7.74950048828125,-0.0017627463676035404,-0.003428287338465452,-0.003352919826284051
1783338296078473500,7.759473388671875,-0.0033742249943315983,-0.005184908397495747,-0.002591521944850683
1783338296088445400,7.769445556640625,-0.0016468988033011556,-0.0041183121502399445,-0.0039007319137454033
1783338296098418700,7.779418701171875,-0.0036330842413008213,-0.004346012603491545,-0.0033100428991019726
1783338296108391400,7.789391357421875,-0.0005704491049982607,-0.004676776938140392,-0.002020274056121707
1783338296118363600,7.79936376953125,-0.0017955031944438815,-0.005788380745798349,-0.004465588368475437
1783338296128336600,7.809336669921875,-0.0016146745765581727,-0.004607534967362881,-0.0036458675749599934
1783338296138309600,7.8193095703125,-0.0027475832030177116,-0.0033992587123066187,-0.0034402713645249605
1783338296148281600,7.829281494140625,-0.0014602112350985408,-0.006076268386095762,-0.00443922309204936
1783338296158254600,7.839254638671875,-0.0023315974976867437,-0.0030362699180841446,-0.004286890383809805
1783338296168226800,7.849226806640625,-0.0008839031797833741,-0.0030458574183285236,-0.0033997914288192987
1783338296178199600,7.859199462890625,-0.002223206916823983,-0.0029995182994753122,-0.0031497206073254347
1783338296188172500,7.869172607421875,-0.0027174896094948053,-0.005019792355597019,-0.003293531248345971
1783338296198144800,7.879144775390625,-0.002395513467490673,-0.004363056737929583,-0.0035771578550338745
1783338296208117800,7.88911767578125,-0.003864246653392911,-0.004827778320759535,-0.0039113848470151424
1783338296218089500,7.89908935546875,-0.002525741932913661,-0.003952397499233484,-0.004945756401866674
1783338296228062700,7.909062744140625,-0.0017867147689685225,-0.004215251188725233,-0.002721750643104315
1783338296238035700,7.91903564453125,-0.0012029499048367143,-0.003680222202092409,-0.003624029690399766
1783338296248007400,7.92900732421875,-0.0012261193478479981,-0.005017661955207586,-0.00247594085521996
1783338296257980700,7.938980712890625,-0.0019893813878297806,-0.005123389419168234,-0.003227484878152609
1783338296267952600,7.94895263671875,-0.0019832560792565346,-0.004908738657832146,-0.0041406829841434956
1783338296277925600,7.958925537109375,-0.0017363809747621417,-0.005242166109383106,-0.004571049474179745
1783338296287898600,7.968898681640625,-0.001976331928744912,-0.005298092495650053,-0.004238953348249197
1783338296297870600,7.97887060546875,-0.0031816784758120775,-0.005264803301542997,-0.0030394657514989376
1783338296307843600,7.988843505859375,-0.002430667169392109,-0.005490372888743877,-0.004671184346079826
1783338296317816800,7.99881689453125,-0.0023851271253079176,-0.006428604479879141,-0.004190217703580856
1783338296327788500,8.00878857421875,-0.0029260150622576475,-0.003573429537937045,-0.0035545211285352707
1783338296337761500,8.018761474609375,-0.0015848471084609628,-0.0046631949953734875,-0.004032026045024395
1783338296347733800,8.028733642578125,-0.0010402307379990816,-0.0036642432678490877,-0.0037984666414558887
1783338296357706500,8.03870654296875,-0.0016415724530816078,-0.004773183725774288,-0.0038163098506629467
1783338296367679500,8.048679443359376,-0.0015864450251683593,-0.004369448404759169,-0.003524960018694401
1783338296377651700,8.058651611328125,-0.0025475798174738884,-0.003698598127812147,-0.0036128442734479904
1783338296387624700,8.068624755859375,-0.0018021611031144857,-0.005409945268183947,-0.004108725115656853
1783338296397596700,8.0785966796875,-0.0012751214671880007,-0.0019678096286952496,-0.0025007082149386406
1783338296407569700,8.088569580078126,-0.0011475561186671257,-0.00520647969096899,-0.003242398612201214
1783338296417542700,8.098542724609375,-0.0014413028256967664,-0.0046576024033129215,-0.0029169602785259485
1783338296427514600,8.1085146484375,-0.0018815232906490564,-0.004691690672188997,-0.002234125742688775
1783338296437487600,8.118487548828124,-0.001728391507640481,-0.00481286458671093,-0.00413509039208293
1783338296447460600,8.128460693359376,-0.001749430550262332,-0.004437359049916267,-0.003055977402254939
1783338296457432800,8.138432861328125,-0.0016793893883004785,-0.0038541266694664955,-0.0035121769178658724
1783338296467405600,8.148405517578125,-0.001719603082165122,-0.005574528593569994,-0.0034999263007193804
1783338296477377500,8.15837744140625,-0.0032027175184339285,-0.005389172583818436,-0.0031425300985574722
1783338296487350800,8.168350830078126,-0.001546763931401074,-0.0029403960797935724,-0.00239205127581954
1783338296497323800,8.17832373046875,-0.003340402850881219,-0.005687979515641928,-0.0041124531999230385
1783338296507295500,8.18829541015625,-0.001675128354690969,-0.004997421521693468,-0.003972104750573635
1783338296517268700,8.198268798828124,-0.0028597023338079453,-0.0036309538409113884,-0.002758502261713147
1783338296527240700,8.20824072265625,-0.0023164174053817987,-0.0044394894503057,-0.002457032445818186
1783338296537213400,8.21821337890625,-0.0012934972764924169,-0.004403270315378904,-0.0036005936563014984
1783338296547186700,8.228186767578125,-0.003028813051059842,-0.004823517519980669,-0.005322061013430357
1783338296557158700,8.23815869140625,-0.0018141453620046377,-0.004720186814665794,-0.003102049930021167
1783338296567131600,8.248131591796875,-0.0011614045361056924,-0.0046908920630812645,-0.0044171190820634365
1783338296577103600,8.258103515625,-0.002659698948264122,-0.007124488707631826,-0.0032144354190677404
1783338296587076600,8.26807666015625,-0.002906307578086853,-0.004304467234760523,-0.0014298511669039726
1783338296597049600,8.278049560546876,-0.002207760466262698,-0.003915645647794008,-0.00404507527127862
1783338296607021600,8.288021484375,-0.0016245282022282481,-0.005796636454761028,-0.0033563817851245403
1783338296616994600,8.29799462890625,-0.0007544735562987626,-0.003614708548411727,-0.003053047927096486
1783338296626967600,8.307967529296874,-0.001243962557055056,-0.004051733296364546,-0.002868490759283304
1783338296636939500,8.317939453125,-0.0019156117923557758,-0.00612180819734931,-0.0035776905715465546
1783338296646912500,8.32791259765625,-0.0013110742438584566,-0.003344397759065032,-0.003053047927096486
1783338296656884700,8.337884765625,-0.002459961920976639,-0.004573446698486805,-0.0034298852551728487
1783338296666857700,8.347857666015624,-0.0008668589289300144,-0.004442685283720493,-0.004222175572067499
1783338296676830500,8.35783056640625,-0.0027513117529451847,-0.004649080336093903,-0.002639725338667631
1783338296686802700,8.367802734375,-0.0007523429812863469,-0.003808320267125964,-0.003471963107585907
1783338296696775700,8.377775634765625,-0.003029345767572522,-0.005075452383607626,-0.003447728231549263
1783338296706747600,8.38774755859375,-0.002213885774835944,-0.004829642828553915,-0.003602457931265235
1783338296716720600,8.397720703125,-0.0014743260107934475,-0.0032895365729928017,-0.004487426485866308
1783338296726693600,8.407693603515625,-0.0010772485984489322,-0.004475708585232496,-0.0046179210767149925
1783338296736665600,8.41766552734375,-0.0019049590919166803,-0.005119660869240761,-0.004057592246681452
1783338296746638600,8.427638671875,-0.0012487561907619238,-0.005505552981048822,-0.004208859521895647
1783338296756610600,8.437610595703125,-0.0017212009988725185,-0.004458930809050798,-0.002275937469676137
1783338296766583800,8.447583740234375,-0.0017829863354563713,-0.005694371182471514,-0.0027869981713593006
1783338296776556800,8.457556884765625,-0.002207760466262698,-0.003263970138505101,-0.0034938009921461344
1783338296786528500,8.467528564453126,-0.0006799050024710596,-0.0029891319572925568,-0.0043321643024683
1783338296796501800,8.477501708984375,-0.002834402257576585,-0.004962534178048372,-0.004306331276893616
1783338296806473700,8.4874736328125,-0.0010301107540726662,-0.005075985100120306,-0.003427488263696432
1783338296816446500,8.497446533203124,-0.0012474246323108673,-0.0038434739690274,-0.0037358824629336596
1783338296826419700,8.507419677734376,0.00032437301706522703,-0.006110356654971838,-0.0022066952660679817
1783338296836391700,8.5173916015625,-0.00202267081476748,-0.004758536349982023,-0.0029137644451111555
1783338296846364700,8.52736474609375,-0.0028786107432097197,-0.0035366779193282127,-0.0030218889005482197
1783338296856337700,8.537337646484374,-0.002825613832101226,-0.003919640555977821,-0.002112152986228466
1783338296866309600,8.5473095703125,-0.0028362665325403214,-0.0041036647744476795,-0.0030479878187179565
1783338296876282600,8.55728271484375,-0.0031731564085930586,-0.003756654914468527,-0.0025715483352541924
1783338296886254600,8.567254638671875,-0.0023148194886744022,-0.0033808830194175243,-0.003768372815102339
1783338296896227600,8.5772275390625,-0.0023936491925269365,-0.004563060123473406,-0.004114317707717419
1783338296906200600,8.58720068359375,-0.0019108180422335863,-0.003704989794641733,-0.003754258155822754
1783338296916172800,8.5971728515625,-0.002037850907072425,-0.0038037928752601147,-0.0037795582320541143
1783338296926145500,8.6071455078125,-0.0014266553334891796,-0.004131628200411797,-0.004228833597153425
1783338296936117800,8.61711767578125,-0.002432797569781542,-0.0035081820096820593,-0.0041127195581793785
1783338296946090800,8.6270908203125,-0.0023177489638328552,-0.003293797606602311,-0.0036005936563014984
1783338296956063700,8.637063720703125,-0.0021736719645559788,-0.003465305082499981,-0.003751861397176981
1783338296966035700,8.64703564453125,-0.00138031633105129,-0.004704474005848169,-0.0034179009962826967
1783338296976008700,8.6570087890625,-0.0019212043844163418,-0.005322593729943037,-0.0034463966730982065
1783338296985980700,8.666980712890625,-0.001883387565612793,-0.004706338047981262,-0.003722300287336111
1783338296995953700,8.67695361328125,-0.0023427826818078756,-0.004712463356554508,-0.0041492050513625145
1783338297005926700,8.6869267578125,0.000017843178284238093,-0.0038128476589918137,-0.004289287142455578
1783338297015898600,8.696898681640626,-0.002319879597052932,-0.004767058417201042,-0.0031638352666050196
1783338297025872000,8.706871826171875,-0.0005273058777675033,-0.005470665637403727,-0.003483148291707039
1783338297035843600,8.716843505859375,-0.00239258399233222,-0.00577905960381031,-0.005085306242108345
1783338297045816600,8.726816650390624,-0.0024983114562928677,-0.0034759577829390764,-0.003852795111015439
1783338297055789800,8.736789794921876,-0.0013206616276875138,-0.0043654534965753555,-0.00373108871281147
1783338297065761500,8.746761474609375,-0.0026639599818736315,-0.005638178437948227,-0.00427250936627388
1783338297075734500,8.756734619140625,-0.002487658755853772,-0.0049795787781476974,-0.0028517129831016064
1783338297085706800,8.766706787109374,-0.001874332781881094,-0.004166249185800552,-0.0028061727061867714
1783338297095680000,8.776679931640626,-0.002088983543217182,-0.006222475785762072,-0.003641073824837804
1783338297105653000,8.786653076171875,-0.0024106933269649744,-0.005282646510750055,-0.004894091282039881
1783338297115625200,8.796625244140625,-0.0018261295044794679,-0.005359877832233906,-0.0027483822777867317
1783338297125598200,8.80659814453125,-0.0012426309986039996,-0.004488491453230381,-0.003023753175511956
1783338297135571000,8.816571044921876,-0.002651443239301443,-0.004914597608149052,-0.003428287338465452
1783338297145543200,8.826543212890625,-0.0006386260502040386,-0.003600061172619462,-0.005030711181461811
1783338297155516200,8.83651611328125,-0.0014671353856101632,-0.0041060615330934525,-0.0038245655596256256
1783338297165488000,8.846488037109374,-0.001275920425541699,-0.003245328087359667,-0.004339620936661959
1783338297175461000,8.856461181640626,-0.002682868391275406,-0.004741225857287645,-0.003093527862802148
1783338297185434000,8.86643408203125,-0.00210709311068058,-0.003926298581063747,-0.0049617355689406395
1783338297195406000,8.876406005859375,-0.0026439863722771406,-0.005218463949859142,-0.005368666257709265
1783338297205379000,8.886379150390624,-0.00108257494866848,-0.005826463922858238,-0.004010454285889864
1783338297215351000,8.89635107421875,-0.0027305390685796738,-0.006022472400218248,-0.00282082031480968
1783338297225324000,8.906323974609375,-0.0023470439482480288,-0.004584099166095257,-0.003659449517726898
1783338297235297300,8.91629736328125,-0.0002085255109705031,-0.004628574009984732,-0.003448793664574623
1783338297245269000,8.92626904296875,-0.0025094966404139996,-0.0028567728586494923,-0.004366518929600716
1783338297255242000,8.936241943359375,-0.0025004418566823006,-0.004253600724041462,-0.0037063213530927896
1783338297265214200,8.946214111328125,-0.0019531622529029846,-0.005871205125004053,-0.00352868833579123
1783338297275187000,8.95618701171875,-0.00213532242923975,-0.005524194799363613,-0.0027944548055529594
1783338297285160200,8.96616015625,-0.0030477214604616165,-0.00407623453065753,-0.0025390577502548695
1783338297295132200,8.976132080078125,-0.0021174794528633356,-0.005203550215810537,-0.003608849598094821
1783338297305105200,8.986105224609375,-0.0018341189716011286,-0.005711681675165892,-0.003960653208196163
1783338297315077000,8.9960771484375,-0.0012980246683582664,-0.003925233148038387,-0.0036828855518251657
1783338297325050000,9.006050048828126,-0.001802960061468184,-0.004486893769353628,-0.004172108136117458
1783338297335023000,9.016023193359375,-0.0020149475894868374,-0.004703674931079149,-0.003495665267109871
1783338297344995000,9.0259951171875,-0.002825880190357566,-0.003403519745916128,-0.0030690268613398075
1783338297354968000,9.035968017578124,-0.00273693073540926,-0.005342034623026848,-0.004519650712609291
1783338297364940300,9.045940185546876,-0.0013677994720637798,-0.004710599314421415,-0.004518318921327591
1783338297374913300,9.055913330078125,-0.0019949739798903465,-0.0036946034524589777,-0.0033603766933083534
1783338297384886000,9.065885986328125,-0.002667954657226801,-0.004889297299087048,-0.0025273398496210575
1783338297394858200,9.075858154296874,-0.0013251889031380415,-0.004833637271076441,-0.0036852823104709387
1783338297404831200,9.085831298828126,-0.0010610034223645926,-0.005188636481761932,-0.002662362065166235
1783338297414803000,9.095802978515625,-0.0006881608278490603,-0.0035505264531821012,-0.0008205199264921248
1783338297424776200,9.105776123046875,-0.001059405505657196,-0.00458782771602273,-0.002575543010607362
1783338297434749200,9.115749267578124,-0.0021755362395197153,-0.003736414946615696,-0.0051276502199471
1783338297444721000,9.125720947265625,-0.002112685702741146,-0.0033800839446485043,-0.003329484025016427
1783338297454694100,9.135694091796875,-0.002692189533263445,-0.004572114907205105,-0.004773183725774288
1783338297464667100,9.145667236328125,-0.0022455775178968906,-0.005113269202411175,-0.005297559779137373
1783338297474639000,9.15563916015625,-0.001916144392453134,-0.003447728231549263,-0.003323625074699521
1783338297484612000,9.165612060546875,-0.0012993563432246447,-0.004757470916956663,-0.003366768127307296
1783338297494584000,9.175583984375,-0.002469282830134034,-0.002651176881045103,-0.0031366711482405663
1783338297504557000,9.18555712890625,-0.0014229270163923502,-0.004441619850695133,-0.003564907470718026
1783338297514530300,9.1955302734375,-0.003881823504343629,-0.004549744538962841,-0.0024716798216104507
1783338297524502000,9.205501953125,-0.0021435783710330725,-0.004876514431089163,-0.003022954100742936
1783338297534475000,9.21547509765625,-0.0022242721170186996,-0.004165716469287872,-0.0051739891059696674
1783338297544447200,9.225447265625,-0.0017411747248843312,-0.004165183752775192,-0.004467186518013477
1783338297554420000,9.235419921875,-0.0011467571603134274,-0.004477838985621929,-0.004851480480283499
1783338297564393000,9.24539306640625,-0.002682602033019066,-0.004424309358000755,-0.004838164895772934
1783338297574365200,9.255365234375,-0.001755023142322898,-0.005322327371686697,-0.0030509172938764095
1783338297584338200,9.265338134765624,-0.001841575838625431,-0.0037968687247484922,-0.004247741773724556
1783338297594310100,9.27531005859375,-0.0020572920329868793,-0.005358013790100813,-0.004026433452963829
1783338297604283100,9.285283203125,-0.0021856562234461308,-0.005425391718745232,-0.0033577135764062405
1783338297614256000,9.295256103515625,-0.0011688614031299949,-0.004350007511675358,-0.002688727341592312
1783338297624228000,9.30522802734375,-0.0001560612436151132,-0.003982757218182087,-0.00452923821285367
1783338297634201000,9.315201171875,-0.0036418726667761803,-0.004177434369921684,-0.0035364115610718727
1783338297644173000,9.325173095703125,-0.0034168355632573366,-0.004749747924506664,-0.002656503114849329
1783338297654146300,9.335146240234375,-0.002694586291909218,-0.004622448701411486,-0.0037406759802252054
1783338297664119000,9.345119140625,-0.0026024410035461187,-0.0034016557037830353,-0.005568137392401695
1783338297674091000,9.355091064453125,-0.001130778226070106,-0.003993143793195486,-0.003537210635840893
1783338297684064300,9.365064208984375,-0.0013784521725028753,-0.004661863669753075,-0.0035414716694504023
1783338297694037200,9.375037353515625,0.0012354403734207153,-0.004708468914031982,-0.0016373114194720984
1783338297704009000,9.385009033203126,-0.001612544059753418,-0.004093811381608248,-0.0026820695493370295
1783338297713982200,9.394982177734375,-0.00123783724848181,-0.003952131140977144,-0.0029382656794041395
1783338297723954200,9.4049541015625,-0.0026972496416419744,-0.004139351192861795,-0.003677559085190296
1783338297733927000,9.414927001953124,-0.0008444883860647678,-0.003906058380380273,-0.003966512158513069
1783338297743900200,9.424900146484376,-0.0016980315558612347,-0.005046690348535776,-0.0030597057193517685
1783338297753872100,9.4348720703125,-0.0015153386630117893,-0.004820588044822216,-0.003375822911038995
1783338297763845000,9.44484521484375,-0.0028272117488086224,-0.005626993253827095,-0.001680720946751535
1783338297773818000,9.454818115234374,-0.0029763488564640284,-0.004214984830468893,-0.004082892090082169
1783338297783790000,9.4647900390625,-0.001079911831766367,-0.003555852686986327,-0.002843457041308284
1783338297793763000,9.47476318359375,-0.001041562296450138,-0.004179564770311117,-0.003753991797566414
1783338297803735000,9.484735107421875,-0.0031377363484352827,-0.003733751829713583,-0.0030360035598278046
1783338297813708000,9.4947080078125,-0.00035686357296071947,-0.0036157737486064434,-0.002216548891738057
1783338297823681000,9.504680908203126,-0.0020240023732185364,-0.004552141297608614,-0.0037681066896766424
1783338297833653200,9.5146533203125,-0.003481284249573946,-0.005718073341995478,-0.005005944054573774
1783338297843626000,9.5246259765625,-0.0024865935556590557,-0.004189684987068176,-0.00253479671664536
1783338297853598200,9.53459814453125,-0.0016234630020335317,-0.004381965380162001,-0.0020208065398037434
1783338297863571200,9.5445712890625,-0.003251187037676573,-0.004573978949338198,-0.004570250865072012
1783338297873544200,9.554544189453125,-0.0017856494523584843,-0.005261341109871864,-0.00261788722127676
1783338297883516200,9.56451611328125,-0.0025390577502548695,-0.0049127331003546715,-0.003011236200109124
1783338297893489200,9.5744892578125,-0.0010937602492049336,-0.0035172367934137583,-0.004180363845080137
1783338297903460900,9.5844609375,-0.0009438242996111512,-0.004083424806594849,-0.003373426152393222
1783338297913434000,9.59443408203125,-0.002276203827932477,-0.005027515348047018,-0.0029342707712203264
1783338297923407000,9.604406982421875,-0.0006823018775321543,-0.005155347287654877,-0.003397660795599222
1783338297933379000,9.614379150390626,-0.00352868833579123,-0.005288771353662014,-0.003382747294381261
1783338297943352000,9.62435205078125,-0.0022828616201877594,-0.004426972474902868,-0.003228017594665289
1783338297953324000,9.634323974609375,-0.0016921724891290069,-0.004189418628811836,-0.003051982494071126
1783338297963297000,9.644297119140624,-0.0006689860601909459,-0.004366518929600716,-0.003154247999191284
1783338297973270300,9.654270263671876,-0.0030181603506207466,-0.004785966593772173,-0.0035952674224972725
1783338297983242000,9.664241943359375,-0.0016594156622886658,-0.006660832092165947,-0.0049316417425870895
1783338297993215000,9.674215087890625,0.00010359696898376569,-0.004816060420125723,-0.0037505298387259245
1783338298003187200,9.684187255859374,-0.0021105550695210695,-0.004176901653409004,-0.0037172401789575815
1783338298013160000,9.694159912109376,-0.0014194648247212172,-0.005862416233867407,-0.0032988577149808407
1783338298023133000,9.7041328125,-0.0020844561513513327,-0.004083424806594849,-0.004013383761048317
1783338298033105200,9.714105224609375,-0.0017022925894707441,-0.0034408040810376406,-0.002671949565410614
1783338298043078100,9.724078125,-0.0018018947448581457,-0.0027385284192860126,-0.0032085764687508345
1783338298053050000,9.734050048828125,-0.001064731739461422,-0.005301288329064846,-0.0032645028550177813
1783338298063023000,9.744023193359375,-0.001341966912150383,-0.005113535560667515,-0.004487692844122648
1783338298072995000,9.7539951171875,-0.0024173513520509005,-0.004234159830957651,-0.0034266894217580557
1783338298082968000,9.763968017578126,-0.0030131004750728607,-0.0056925066746771336,-0.003882888937368989
1783338298092941000,9.773941162109375,-0.0015070828376337886,-0.005456550512462854,-0.0038605183362960815
1783338298102912500,9.78391259765625,-0.00032730249222368,-0.004197407979518175,-0.0028455876745283604
1783338298112885500,9.793885498046874,-0.002281530061736703,-0.0035779569298028946,-0.0034437335561960936
1783338298122857200,9.803857177734375,-0.0015869776252657175,-0.004020840395241976,-0.003478354774415493
1783338298132830500,9.81383056640625,-0.0008157262345775962,-0.005899967160075903,-0.0027478495612740517
1783338298142803500,9.823803466796875,-0.0015805860748514533,-0.005820072256028652,-0.0037846181076020002
1783338298152775200,9.833775146484374,-0.0024767396971583366,-0.003864513011649251,-0.0037055222783237696
1783338298162748400,9.84374853515625,-0.0021963089238852262,-0.004547613672912121,-0.004521248396486044
1783338298172720400,9.853720458984375,-0.002276203827932477,-0.00401631323620677,-0.0033878071699291468
1783338298182693400,9.863693359375,-0.0015419702976942062,-0.004875448998063803,-0.004347078036516905
1783338298192665300,9.873665283203126,-0.0020548950415104628,-0.00624165078625083,-0.0026048377621918917
1783338298202638300,9.883638427734375,-0.000006125270374468528,-0.005277852527797222,-0.003011502558365464
1783338298212611300,9.893611328125,-0.0020325244404375553,-0.004710332956165075,-0.002621882129460573
1783338298222583300,9.903583251953124,-0.0017587515758350492,-0.005148955620825291,-0.002653573639690876
1783338298232556300,9.913556396484376,-0.0027830032631754875,-0.0034791536163538694,-0.003498062025755644
1783338298242529300,9.923529296875,-0.0027150926180183887,-0.004245078656822443,-0.0028330706991255283
1783338298252501500,9.93350146484375,-0.0021555626299232244,-0.005124987103044987,-0.0033957967534661293
1783338298262474200,9.94347412109375,-0.002499643014743924,-0.004759601317346096,-0.002144643571227789
1783338298272446500,9.953446533203126,-0.0027055053506046534,-0.0036072516813874245,-0.004108458757400513
1783338298282419500,9.96341943359375,-0.002773149637505412,-0.005818474106490612,-0.0028642297256737947
1783338298292392400,9.973392333984375,-0.001127582392655313,-0.004277569241821766,-0.0031198931392282248
1783338298302364400,9.983364501953124,-0.004092479590326548,-0.003507383167743683,-0.004040814470499754
1783338298312337400,9.99333740234375,-0.001924666459672153,-0.005594768561422825,-0.003856523660942912
1783338298322309400,10.003309326171875,-0.0022658174857497215,-0.004580104257911444,-0.002597380895167589
1783338298332282400,10.013282470703125,-0.0007938882918097079,-0.004821386653929949,-0.0030858046375215054
1783338298342254300,10.02325439453125,-0.002432531211525202,-0.003637611633166671,-0.002965696156024933
1783338298352227300,10.033227294921875,-0.0016346483025699854,-0.005642705596983433,-0.004788629710674286
1783338298362200600,10.04320068359375,-0.002442651428282261,-0.0035049861762672663,-0.0025925873778760433
1783338298372172300,10.05317236328125,-0.001677791471593082,-0.003555053612217307,-0.0034756914246827364
1783338298382145300,10.063145263671874,-0.0015124091878533363,-0.005850432440638542,-0.003379018744453788
1783338298392118500,10.073118408203126,-0.000708134553860873,-0.0043713124468922615,-0.0033044503070414066
1783338298402090200,10.08309033203125,-0.0015757924411445856,-0.004487426485866308,-0.00484429020434618
1783338298412063500,10.0930634765625,-0.0013398362789303064,-0.003802461316809058,-0.0035425368696451187
1783338298422035500,10.103035400390626,-0.0006146575906313956,-0.004799282643944025,-0.0037441381718963385
1783338298432008400,10.113008544921875,-0.0008255799184553325,-0.0059716058894991875,-0.0031055121216923
1783338298441981400,10.1229814453125,-0.0021699436474591494,-0.005757221486419439,-0.003210440743714571
1783338298451953400,10.132953369140624,-0.0019563580863177776,-0.005486377980560064,-0.0021635519806295633
1783338298461926400,10.142926513671876,-0.001793905277736485,-0.004879443906247616,-0.003955593332648277
1783338298471898400,10.1528984375,-0.0023086944129318,-0.007001183927059174,-0.0029345371294766665
1783338298481871400,10.162871337890625,-0.0025361282750964165,-0.00407516909763217,-0.003483947366476059
1783338298491843600,10.172843505859374,-0.0030716899782419205,-0.004418184049427509,-0.004441353492438793
1783338298501816300,10.18281640625,-0.0014466290595009923,-0.005555087700486183,-0.0031643679831176996
1783338298511789300,10.192789306640625,-0.002654106356203556,-0.004191016778349876,-0.0028818065766245127
1783338298521761500,10.202761474609375,-0.0023315974976867437,-0.003468234557658434,-0.003765976056456566
1783338298531734500,10.212734619140624,-0.0023728765081614256,-0.0037207023706287146,-0.0026144252624362707
1783338298541707300,10.222707275390626,-0.002814695006236434,-0.0035747610963881016,-0.0032176312524825335
1783338298551679500,10.232679443359375,-0.0011800467036664486,-0.005369731690734625,-0.0038181741256266832
1783338298561652500,10.242652587890625,-0.0032730249222368,-0.003997138235718012,-0.0033364081755280495
1783338298571624200,10.252624267578126,-0.002538258908316493,-0.003932157531380653,-0.0033747577108442783
1783338298581597400,10.262597412109375,-0.002939597237855196,-0.003102049930021167,-0.0032626385800540447
1783338298591569400,10.2725693359375,-0.001543568097986281,-0.003974767867475748,-0.004459995776414871
1783338298601542400,10.28254248046875,-0.0015752597246319056,-0.003811516100540757,-0.0037646444980055094
1783338298611515400,10.292515380859374,-0.003483414649963379,-0.004572913981974125,-0.002975283656269312
1783338298621487400,10.3024873046875,-0.0017797905020415783,-0.005057875532656908,-0.0027023095171898603
1783338298631460400,10.31246044921875,-0.0022093583829700947,-0.005595034919679165,-0.005002481862902641
1783338298641432300,10.322432373046874,-0.0028583707753568888,-0.004739894066005945,-0.003972903825342655
1783338298651405300,10.3324052734375,-0.0036424053832888603,-0.005123123060911894,-0.0020823257509618998
1783338298661378300,10.34237841796875,-0.002746518002822995,-0.0036695697344839573,-0.003823766717687249
1783338298671350500,10.3523505859375,-0.0015893745003268123,-0.004637362435460091,-0.0051534827798604965
1783338298681323300,10.3623232421875,-0.0018311894964426756,-0.0049737198278307915,-0.0036064526066184044
1783338298691295500,10.37229541015625,-0.0010098706698045135,-0.004160656593739986,-0.0025153555907309055
1783338298701268500,10.3822685546875,-0.0022189458832144737,-0.004334028344601393,-0.0037468012887984514
1783338298711241500,10.392241455078125,-0.0028154938481748104,-0.0036618465092033148,-0.005270395893603563
1783338298721213400,10.40221337890625,-0.002112152986228466,-0.004718055948615074,-0.0024546354543417692
1783338298731186400,10.4121865234375,-0.0026764769572764635,-0.004779309034347534,-0.0033044503070414066
1783338298741158400,10.422158447265625,-0.0006860303110443056,-0.003238936420530081,-0.003796602366492152
1783338298751131400,10.43213134765625,-0.0025827335193753242,-0.005227785091847181,-0.004530835896730423
1783338298761104400,10.4421044921875,-0.0025896579027175903,-0.0038634478114545345,-0.0038424087688326836
1783338298771076400,10.452076416015625,-0.0030780816450715065,-0.004574778024107218,-0.001463406952098012
1783338298781049600,10.462049560546875,-0.001975000137463212,-0.004522047471255064,-0.003306314582005143
1783338298791021300,10.472021240234374,-0.0025688852183520794,-0.005032575689256191,-0.0031646343413740396
1783338298800994300,10.481994384765626,-0.0008064051507972181,-0.004861067980527878,-0.004643487744033337
1783338298810967600,10.491967529296875,-0.000027696874894900247,-0.004201935604214668,-0.0011968245962634683
1783338298820939300,10.501939208984375,-0.002895655110478401,-0.003257312346249819,-0.0038048583082854748
1783338298830912300,10.511912353515624,-0.001973136095330119,-0.006453638430684805,-0.0036852823104709387
1783338298840884500,10.521884521484376,-0.001796834752894938,-0.0057620154693722725,-0.003846403444185853
1783338298850857500,10.531857421875,-0.0017651431262493134,-0.004799815360456705,-0.0041617220267653465
1783338298860830200,10.541830322265625,-0.0009960222523659468,-0.0041031320579349995,-0.004924184642732143
1783338298870802400,10.551802490234374,-0.0026202842127531767,-0.003913248889148235,-0.004240018781274557
1783338298880775400,10.561775390625,-0.0021947110071778297,-0.005803826730698347,-0.0026676885318011045
1783338298890747400,10.571747314453125,-0.002174737397581339,-0.0044083306565880775,-0.00296250032261014
1783338298900720400,10.581720458984375,-0.0023156185634434223,-0.004166781902313232,-0.0024567660875618458
1783338298910693400,10.591693359375,-0.0005142564186826348,-0.005319664254784584,-0.0049308426678180695
1783338298920665600,10.60166552734375,-0.0025619608350098133,-0.005425658077001572,-0.004091946873813868
1783338298930638300,10.611638427734375,-0.002356631215661764,-0.004451473709195852,-0.004022172186523676
1783338298940610300,10.6216103515625,-0.004293814767152071,-0.0038224351592361927,-0.0033963292371481657
1783338298950583600,10.63158349609375,-0.0030660973861813545,-0.0049532135017216206,-0.003972903825342655
1783338298960556500,10.641556640625,-0.0029321403708308935,-0.004569984506815672,-0.003373692510649562
1783338298970528300,10.6515283203125,-0.0012668657582253218,-0.004841094370931387,-0.0035151063930243254
1783338298980501500,10.66150146484375,-0.0026381274219602346,-0.004539890680462122,-0.004203266929835081
1783338298990473500,10.671473388671876,-0.001531850197352469,-0.005395830608904362,-0.002042910782620311
1783338299000446200,10.6814462890625,-0.0007603325066156685,-0.006185191683471203,-0.004452539142221212
1783338299010419500,10.69141943359375,-0.003802194958552718,-0.0036874127108603716,-0.004116980824619532
1783338299020391400,10.701391357421874,-0.0020695424173027277,-0.0037763623986393213,-0.002040780382230878
1783338299030364200,10.7113642578125,-0.002296177437528968,-0.005276787560433149,-0.0039007319137454033
1783338299040336400,10.72133642578125,-0.0025872609112411737,-0.006922088097780943,-0.004893025849014521
1783338299050309400,10.731309326171875,-0.0021105550695210695,-0.0037950044497847557,-0.0037585191894322634
1783338299060282400,10.741282470703124,-0.001326786819845438,-0.003593669505789876,-0.002666356973350048
1783338299070254300,10.75125439453125,-0.00199390877969563,-0.00404640706256032,-0.005393700208514929
1783338299080227300,10.761227294921875,-0.0019680759869515896,-0.005601426586508751,-0.0028487835079431534
1783338299090199600,10.771199462890625,-0.0016053534345701337,-0.0034205641131848097,-0.003081809962168336
1783338299100172500,10.781172607421874,-0.002469815546646714,-0.004338555503636599,-0.004268248099833727
1783338299110145500,10.7911455078125,-0.0013550163712352514,-0.0041822283528745174,-0.004275971557945013
1783338299120117800,10.80111767578125,-0.003640541108325124,-0.00427304208278656,-0.004535363521426916
1783338299130090800,10.8110908203125,-0.0028695559594780207,-0.004916728008538485,-0.003037601476535201
1783338299140062500,10.8210625,-0.002141980454325676,-0.004270378965884447,-0.0035425368696451187
1783338299150035700,10.83103564453125,-0.0011171960504725575,-0.004928978625684977,-0.0032613070216029882
1783338299160008700,10.8410087890625,-0.0019651465117931366,-0.0031230889726430178,-0.005901831202208996
1783338299169980400,10.85098046875,-0.0038959383964538574,-0.0037848844658583403,-0.002275671111419797
1783338299179953700,10.86095361328125,-0.0012783173006027937,-0.00347489258274436,-0.0038309572264552116
1783338299189925600,10.870925537109375,-0.0012215919559821486,-0.005967078730463982,-0.0034317492973059416
1783338299199898400,10.8808984375,-0.002174737397581339,-0.0059742690064013,-0.003522563260048628
1783338299209870600,10.89087060546875,-0.0016346483025699854,-0.0033513219095766544,-0.0037950044497847557
1783338299219843600,10.900843505859376,-0.0011528824688866735,-0.006078931502997875,-0.003369697602465749
1783338299229816600,10.910816650390625,-0.0008370315190404654,-0.006360693834722042,-0.004042145796120167
1783338299239788500,10.92078857421875,-0.002292981604114175,-0.004671450704336166,-0.0020181434229016304
1783338299249761500,10.930761474609374,-0.0006383596919476986,-0.0044171190820634365,-0.003471430391073227
1783338299259733800,10.940733642578126,-0.0017161410069093108,-0.005847236607223749,-0.0026162895374000072
1783338299269706500,10.95070654296875,-0.0027225494850426912,-0.0025446503423154354,-0.003224289044737816
1783338299279679500,10.960679443359375,-0.002417883835732937,-0.0037462685722857714,-0.0028903286438435316
1783338299289651700,10.970651611328124,-0.0031244205310940742,-0.003963049966841936,-0.00296329939737916
1783338299299624700,10.980624755859376,-0.001885784324258566,-0.0039049931801855564,-0.003918308764696121
1783338299309596400,10.990596435546875,-0.0028365328907966614,-0.005304484162479639,-0.003064499469473958
1783338299319569700,11.000569580078125,-0.0013875069562345743,-0.006219013594090939,-0.004601409658789635
1783338299329542700,11.010542724609374,-0.00047404266661033034,-0.005001682788133621,-0.0035028557758778334
1783338299339514400,11.020514404296875,-0.0012532835826277733,-0.003916977439075708,-0.003165166825056076
1783338299349487600,11.030487548828125,-0.0033044503070414066,-0.004531102254986763,-0.003087668912485242
1783338299359459600,11.04045947265625,-0.0022184131667017937,-0.004730306565761566,-0.005050418432801962
1783338299369432600,11.0504326171875,-0.002694852650165558,-0.004277569241821766,-0.003206445835530758
1783338299379405600,11.060405517578126,-0.002156095113605261,-0.004540157038718462,-0.004877845756709576
1783338299389377500,11.07037744140625,-0.002621882129460573,-0.004165183752775192,-0.004621915984898806
1783338299399350500,11.0803505859375,-0.0009709885343909264,-0.004787298385053873,-0.0031039142049849033
1783338299409322500,11.090322509765626,-0.0011859056539833546,-0.002439721953123808,-0.00199310970492661
1783338299419295500,11.10029541015625,-0.003064499469473958,-0.005377188324928284,-0.004263720940798521
1783338299429268500,11.1102685546875,-0.0014327806420624256,-0.0032565132714807987,-0.004452805500477552
1783338299439240700,11.12024072265625,-0.001731853699311614,-0.0027539748698472977,-0.004341219086199999
1783338299449213400,11.13021337890625,-0.003082342678681016,-0.0036432044580578804,-0.0030328077264130116
1783338299459185700,11.140185546875,-0.00173771264962852,-0.005080512259155512,-0.004173972178250551
1783338299469158700,11.15015869140625,-0.0011566109023988247,-0.003622697899118066,-0.0021845910232514143
1783338299479131600,11.160131591796874,-0.001446362817659974,-0.004526308737695217,-0.0035214978270232677
1783338299489103600,11.170103515625,-0.0013435647124424577,-0.00458836043253541,-0.0036962011363357306
1783338299499076600,11.18007666015625,-0.0009622001089155674,-0.004521248396486044,-0.003837881376966834
1783338299509048600,11.190048583984375,0.000011451592399680521,-0.0031158984638750553,-0.0036432044580578804
1783338299519021600,11.200021484375,-0.003026149934157729,-0.00381444557569921,-0.0038477350026369095
1783338299528994600,11.20999462890625,-0.000925448490306735,-0.005607019178569317,-0.002276470186188817
1783338299538966500,11.219966552734375,-0.00318940170109272,-0.005293831694871187,-0.0038400120101869106
1783338299548939800,11.229939697265625,-0.0031728900503367186,-0.004719387739896774,-0.004058923572301865
1783338299558911500,11.239911376953126,-0.0020961740519851446,-0.00481419637799263,-0.0029768813401460648
1783338299568884700,11.249884765625,-0.0015030881622806191,-0.0051681301556527615,-0.0031414648983627558
1783338299578856700,11.259856689453125,-0.0016250609187409282,-0.0036400086246430874,-0.004190750420093536
1783338299588829400,11.269829345703124,-0.0011616708943620324,-0.00532685499638319,-0.0046599991619586945
1783338299598802700,11.279802734375,-0.0021784657146781683,-0.0032466596458107233,-0.0031971249263733625
1783338299608774700,11.289774658203125,-0.00126739835832268,-0.003043993143364787,-0.004326571244746447
1783338299618747600,11.29974755859375,-0.0033193640410900116,-0.004594485275447369,-0.003975566942244768
1783338299628719600,11.3097197265625,-0.0022266688756644726,-0.0033449302427470684,-0.002404035534709692
1783338299638692600,11.319692626953126,-0.0025092302821576595,-0.0030948594212532043,-0.003576359013095498
1783338299648665600,11.32966552734375,-0.0002719087351579219,-0.003483947366476059,-0.0030011162161827087
1783338299658637600,11.339637451171875,-0.002261556452140212,-0.006088519003242254,-0.004233360756188631
1783338299668610600,11.349610595703124,-0.0021792647894471884,-0.005263737868517637,-0.003481284249573946
1783338299678582800,11.359582763671876,-0.0019214707426726818,-0.004132959526032209,-0.0052413675002753735
1783338299688555800,11.3695556640625,-0.002692189533263445,-0.005162005312740803,-0.003626426449045539
1783338299698528500,11.379528564453125,-0.0025486452504992485,-0.004865062423050404,-0.004604339133948088
1783338299708500700,11.389500732421874,-0.0005648564547300339,-0.003667971817776561,-0.003388073528185487
1783338299718473700,11.3994736328125,-0.002722017001360655,-0.005259742960333824,-0.004832305945456028
1783338299728445400,11.409445556640625,-0.0012442287988960743,-0.0029984530992805958,-0.005290635861456394
1783338299738418700,11.419418701171875,-0.001448759576305747,-0.0032264196779578924,-0.0031302794814109802
1783338299748391700,11.4293916015625,-0.00242214510217309,-0.005905293393880129,-0.00506906071677804
1783338299758363400,11.43936328125,-0.0032831449061632156,-0.003751062322407961,-0.002713228575885296
1783338299768336600,11.449336669921875,-0.0022530341520905495,-0.004788629710674286,-0.0022029669489711523
1783338299778308600,11.45930859375,-0.0018791264155879617,-0.004442418925464153,-0.005139368120580912
1783338299788281600,11.469281494140626,-0.0011744539951905608,-0.003754790872335434,-0.0037774275988340378
1783338299798254600,11.479254638671875,-0.002208026824519038,-0.003278883872553706,-0.004310059826821089
1783338299808226600,11.4892265625,-0.002283926820382476,-0.003168629016727209,-0.0023489079903811216
1783338299818199600,11.499199462890624,-0.0014705975772812963,-0.0067545752972364426,-0.004670652095228434
1783338299828171500,11.509171630859376,-0.0013401026371866465,-0.004110855516046286,-0.004437625408172607
1783338299838144500,11.51914453125,-0.0031039142049849033,-0.004689027555286884,-0.00373082235455513
1783338299848116700,11.52911669921875,-0.0017188041238114238,-0.004849350079894066,-0.00535614974796772
