time,seconds_elapsed,z,y,x
1783338288393318400,0.074318359375,0.0013041592901572585,-0.026443155482411385,-0.016412552446126938
1783338288403291400,0.08429150390625,-0.0011626530904322863,0.03552655875682831,0.02126074954867363
1783338288413263400,0.094263427734375,0.000495431013405323,0.03523947298526764,0.020015720278024673
1783338288423236400,0.104236328125,0.00018674531020224094,-0.025446902960538864,-0.011759686283767223
1783338288433209300,0.114209228515625,0.0007129858713597059,-0.038200780749320984,-0.023829929530620575
1783338288443181300,0.124181396484375,-0.0004922562511637807,0.009154203347861767,0.005884751211851835
1783338288453154300,0.134154296875,0.0006156187737360597,0.03772938996553421,0.020752381533384323
1783338288463127300,0.144127197265625,0.00040352821815758944,0.0022353234235197306,0.002017112448811531
1783338288473099500,0.154099609375,0.0011851659510284662,-0.033512555062770844,-0.018558204174041748
1783338288483072300,0.164072265625,-0.00015884579624980688,-0.0099444929510355,-0.006690051406621933
1783338288493045200,0.174045166015625,-0.00004273199010640383,0.025722423568367958,0.0149009944871068
1783338288503017500,0.184017578125,-0.00038703344762325287,0.014911551028490067,0.010030660778284073
1783338288512990500,0.193990478515625,0.0002824851544573903,-0.019382774829864502,-0.011008044704794884
1783338288522963200,0.203963134765625,0.0001378037268295884,-0.018578853458166122,-0.010677237994968891
1783338288532935400,0.213935302734375,-0.0003394345985725522,0.012643514201045036,0.006728650536388159
1783338288542908400,0.223908447265625,-0.001426075934432447,0.021135181188583374,0.011345282196998596
1783338288552881400,0.23388134765625,0.0006474611582234502,-0.006152632180601358,-0.0037380624562501907
1783338288562853400,0.243853271484375,-0.0002077298704534769,-0.019494272768497467,-0.011703171767294407
1783338288572826400,0.253826416015625,0.000348071800544858,0.00020699342712759972,0.00038864463567733765
1783338288582798600,0.263798583984375,-0.0010977268684655428,0.017776034772396088,0.011852459982037544
1783338288592771300,0.273771240234375,-0.0008354056626558304,0.004288720898330212,0.0009827681351453066
1783338288602744300,0.283744384765625,0.0013897826429456472,-0.014209546148777008,-0.009693564847111702
1783338288612716500,0.293716552734375,-0.0009708433644846082,-0.005913532804697752,-0.004035145975649357
1783338288622689500,0.303689453125,-0.0015601874329149723,0.013170207850635052,0.008088978007435799
1783338288632662300,0.313662353515625,0.00022759265266358852,0.00817198771983385,0.0057632396928966045
1783338288642634500,0.323634521484375,0.00026410981081426144,-0.00919884629547596,-0.005686250049620867
1783338288652607500,0.333607421875,-0.0007388365920633078,-0.010369570925831795,-0.005112871062010527
1783338288662580500,0.34358056640625,0.0012760397512465715,0.00583940465003252,0.0024556086864322424
1783338288672552400,0.353552490234375,0.00013008154928684235,0.007818931713700294,0.005627433769404888
1783338288682525400,0.363525390625,0.0004585221176967025,-0.003794227261096239,-0.000819855835288763
1783338288692498400,0.37349853515625,-0.000349214649759233,-0.008561285212635994,-0.00549370376393199
1783338288702470400,0.383470458984375,-0.0007897322066128254,-0.0001748916693031788,-0.00011435686610639095
1783338288712443400,0.393443359375,-0.0009665659163147211,0.0073930127546191216,0.004539517220109701
1783338288722416400,0.40341650390625,-0.000352525501511991,0.002009017625823617,0.0016470167320221663
1783338288732388600,0.413388671875,0.000361201586201787,-0.00706889946013689,-0.003342149080708623
1783338288742361300,0.423361328125,-0.0017304759239777923,-0.0031864438205957413,-0.002231050981208682
1783338288752333300,0.433333251953125,0.0008498609531670809,0.005097851622849703,0.0026049832813441753
1783338288762306600,0.443306640625,0.0011092131026089191,0.0014214362017810345,0.001702985493466258
1783338288772279600,0.453279541015625,-0.0005241035250946879,-0.0047166175208985806,-0.0033325194381177425
1783338288782251300,0.463251220703125,-0.0004396813455969095,-0.004299300257116556,-0.0020850948058068752
1783338288792224500,0.473224609375,-0.00005272403359413147,0.004441727418452501,0.0023213715758174658
1783338288802197500,0.483197509765625,0.0002017519436776638,0.003967859782278538,0.000640565762296319
1783338288812169200,0.493169189453125,-0.0013988078571856022,-0.003289253916591406,-0.0007029988337308168
1783338288822142500,0.503142578125,0.0006715203635394573,-0.004548192024230957,-0.0018892544321715832
1783338288832115500,0.513115478515625,-0.0002067901659756899,0.003285762155428529,0.00013448158279061317
1783338288842087400,0.52308740234375,0.0002212973777204752,0.0038019325584173203,0.0013587505090981722
1783338288852060400,0.533060302734375,0.0008788318373262882,-0.001445826143026352,-0.0011009450536221266
1783338288862033400,0.543033447265625,0.0017013781471177936,-0.003121475223451853,-0.0011149898637086153
1783338288872005400,0.55300537109375,0.0008022949332371354,-0.0003123730421066284,0.0015401816926896572
1783338288881978400,0.562978271484375,0.001433621859177947,0.002608016598969698,0.002107965759932995
1783338288891950300,0.572950439453125,0.0011854153126478195,0.0012966759968549013,-0.0006430796347558498
1783338288901923300,0.58292333984375,0.0005820505321025848,-0.0019169272854924202,-0.002029253402724862
1783338288911896600,0.592896484375,0.0004832472186535597,-0.002060205675661564,-0.00029580178670585155
1783338288921868300,0.602868408203125,-0.0008430936140939593,0.002347442554309964,0.001098055625334382
1783338288931841300,0.61284130859375,0.00030446238815784454,0.001191630493849516,0.002052798867225647
1783338288941814500,0.622814453125,-0.0003195502795279026,-0.0018679751083254814,-0.0009301803074777126
1783338288951786200,0.6327861328125,0.0008522405987605453,-0.0017992653883993626,-0.0020785355009138584
1783338288961759200,0.64275927734375,0.00013204081915318966,0.0012403365690261126,0.001946803997270763
1783338288971732500,0.652732421875,-0.0018791784532368183,0.0008986531756818295,0.00048206537030637264
1783338288981704400,0.662704345703125,-0.0005147694610059261,-0.0010354709811508656,-0.000055331969633698463
1783338288991677200,0.67267724609375,-0.0007885422091931105,-0.002009655348956585,-0.0005173902027308941
1783338289001650400,0.682650390625,0.002247086726129055,-0.0006240000948309898,0.0001972054596990347
1783338289011622400,0.692622314453125,0.0014284311328083277,0.000546459574252367,0.0004411512054502964
1783338289021595400,0.702595458984375,-0.0007161727407947183,0.0003802408464252949,-0.0002592036034911871
1783338289031568400,0.712568359375,-0.00009565625805407763,-0.0009169848635792732,-0.0007524213287979364
1783338289041540400,0.722540283203125,-0.00003047659993171692,0.0003655250184237957,-0.0012897925917059183
1783338289051513300,0.732513427734375,-0.00046830042265355587,0.0010030858684331179,0.0015390173066407442
1783338289061485300,0.7424853515625,0.0004663183353841305,0.0012332317419350147,0.002242638263851404
1783338289071458300,0.752458251953125,0.00014540739357471466,-0.0014919810928404331,-0.0006026830524206161
1783338289081431300,0.762431396484375,-0.0013125771656632423,-0.0006291475147008896,0.00010829837992787361
1783338289091403000,0.772403076171875,0.0008179517462849617,0.002590880496427417,0.00009658047929406166
1783338289101376000,0.7823759765625,0.00009780132677406073,0.00025751907378435135,-0.00016491394490003586
1783338289111349000,0.792348876953125,0.0010315055260434747,-0.0008287844248116016,-0.00020752474665641785
1783338289121321000,0.802321044921875,0.00015195109881460667,0.0009341530967503786,0.00012361863628029823
1783338289131294000,0.8122939453125,-0.0002784158568829298,0.0012814293149858713,-0.0009706744458526373
1783338289141267000,0.822266845703125,-0.001013218192383647,0.0007227978203445673,-0.0005121659487485886
1783338289151239000,0.832239013671875,-0.0005471650511026382,0.0008804569952189922,-0.0005651628598570824
1783338289161212000,0.8422119140625,-0.0003538785967975855,0.000364045612514019,0.0007395297288894653
1783338289171184000,0.85218408203125,-0.00036639533936977386,-0.0006460915319621563,0.0011493901256471872
1783338289181157000,0.8621572265625,0.0010152285685762763,0.0013188878074288368,0.0017297796439379454
1783338289191129900,0.8721298828125,-0.0013853448908776045,-0.0007352083921432495,-0.0004678606055676937
1783338289201102000,0.88210205078125,0.00045148469507694244,-0.0010051480494439602,-0.00045690988190472126
1783338289211075000,0.892074951171875,0.0003835740499198437,0.0002635819837450981,0.0020738919265568256
1783338289221048000,0.902048095703125,0.0001331492094323039,0.001550167566165328,-0.0009658087510615587
1783338289231020000,0.91202001953125,-0.0002748471451923251,-0.00047942763194441795,-0.00020840554498136044
1783338289240993000,0.921992919921875,0.0005473600467666984,-0.0017353328876197338,0.0012583944480866194
1783338289250966000,0.931966064453125,0.00019955122843384743,0.0005914708599448204,0.000053047901019454
1783338289260938000,0.94193798828125,0.00012890994548797607,0.0006870368961244822,0.00046472810208797455
1783338289270911000,0.951910888671875,0.0005187966162338853,-0.0002826200798153877,-0.000058582983911037445
1783338289280884000,0.961884033203125,0.000917992671020329,-0.00022239284589886665,0.0003188198897987604
1783338289290856200,0.971856201171875,0.0013598110526800156,-0.00030574994161725044,-0.00022419868037104607
1783338289300829000,0.981828857421875,-0.0010288463672623038,0.0009897227864712477,0.00012336904183030128
1783338289310801200,0.99180126953125,-0.00036278984043747187,0.0005138157866895199,-0.00016052392311394215
1783338289320774100,1.001774169921875,0.000037373858503997326,-0.0008265320211648941,0.0005460672546178102
1783338289330747100,1.0117470703125,0.00032765837386250496,-0.0009077582508325577,0.0018379666144028306
1783338289340719000,1.021718994140625,0.0012281787348911166,-0.000964003149420023,-0.0012257043272256851
1783338289350692000,1.031692138671875,-0.0002373588504269719,0.000014974735677242279,0.00012558349408209324
1783338289360665000,1.0416650390625,-0.00034728681202977896,0.0007432380225509405,0.00039680348709225655
1783338289370637000,1.051636962890625,0.0008937462698668242,-0.0005294866859912872,-0.0005917618982493877
1783338289380610000,1.061610107421875,0.000850569223985076,0.00019913259893655777,-0.0001544477418065071
1783338289390583000,1.0715830078125,0.001371483551338315,0.0002167094498872757,-0.00037043006159365177
1783338289400555000,1.081554931640625,-0.0006337575614452362,-0.0006239078938961029,0.0009392115753144026
1783338289410528000,1.091528076171875,0.001431257463991642,-0.00011204835027456284,0.0005288184620440006
1783338289420501000,1.1015009765625,0.0003859789576381445,0.001012665219604969,-0.0011983413714915514
1783338289430473200,1.11147314453125,-0.0008473310153931379,0.0013793825637549162,0.0011060917750000954
1783338289440446000,1.121446044921875,-0.0008527972968295217,-0.0002393564209342003,-0.0011208616197109222
1783338289450418000,1.13141796875,-0.00010524794925004244,-0.00034668203443288803,0.00044907163828611374
1783338289460391200,1.14139111328125,-0.0016433416167274117,-0.00022159656509757042,0.0006359675899147987
1783338289470364200,1.1513642578125,-0.001561049954034388,-0.00046847155317664146,0.0011763230431824923
1783338289480336000,1.1613359375,-0.002136500086635351,-0.0007297429256141186,0.0003029992803931236
1783338289490309000,1.17130908203125,0.0015000465791672468,0.0009658916387706995,0.0002569267526268959
1783338289500282000,1.1812822265625,-0.00009682425297796726,-0.00039120111614465714,-0.0008628056384623051
1783338289510253800,1.19125390625,0.0006102449260652065,-0.000019956380128860474,0.00044507277198135853
1783338289520227000,1.20122705078125,-0.0006890542572364211,-0.0006770477630198002,-0.0013529353309422731
1783338289530200000,1.211199951171875,-0.00047919724602252245,0.00009100791066884995,0.0008236663416028023
1783338289540172000,1.221172119140625,0.0002229548990726471,-0.001132025383412838,0.001112758880481124
1783338289550145000,1.23114501953125,-0.00017918238881975412,-0.001192479394376278,0.0007827933877706528
1783338289560117000,1.241116943359375,0.0016930492129176855,-0.0004374757409095764,-0.0006241162773221731
1783338289570090000,1.251090087890625,0.0002946233144029975,0.0006424360908567905,-0.0004294391255825758
1783338289580063200,1.261063232421875,-0.00038846535608172417,0.0002575884573161602,0.0006965778302401304
1783338289590035000,1.271034912109375,-0.0007298826240003109,-0.00024122139438986778,-0.00032074982300400734
1783338289600008000,1.281008056640625,0.0016190876485779881,0.0010074202436953783,0.000861495966091752
1783338289609981200,1.290981201171875,-0.0008251615799963474,0.0008614789694547653,-0.001671703066676855
1783338289619953000,1.300952880859375,-0.00039768184069544077,-0.000482434406876564,0.0010845160577446222
1783338289629926000,1.31092578125,0.0002542599104344845,0.00017723068594932556,-0.000405255937948823
1783338289639899100,1.320899169921875,0.00036422768607735634,-0.0008507333695888519,0.0009923256002366543
1783338289649871000,1.33087109375,-0.0005428448785096407,0.0012153468560427427,-0.00007400405593216419
1783338289659843800,1.34084375,0.00019949080888181925,-0.00024530524387955666,-0.0004113640170544386
1783338289669816000,1.350816162109375,-0.0005288837710395455,0.00023859133943915367,0.00006587477400898933
1783338289679789000,1.3607890625,0.00024250056594610214,-0.0009582377970218658,0.00004131556488573551
1783338289689762000,1.370761962890625,0.0009628856205381453,-0.00021228613331913948,-0.0005288671236485243
1783338289699734000,1.380734130859375,-0.0002066324232146144,0.00041152723133563995,0.0003702400717884302
1783338289709707000,1.39070703125,-0.00013765634503215551,0.0007710540667176247,-0.001840982586145401
1783338289719680000,1.400679931640625,-0.0002460764953866601,-0.0022695064544677734,-0.0008129291236400604
1783338289729652000,1.41065185546875,0.000519049703143537,-0.00002819020301103592,0.0007439546752721071
1783338289739625000,1.420625,0.00022117129992693663,-0.0012590186670422554,-0.00029928749427199364
1783338289749598000,1.430597900390625,0.00005179422441869974,-0.0016217413358390331,-0.000342164421454072
1783338289759570200,1.440570068359375,-0.0007476741448044777,0.0008710706606507301,-0.00008797203190624714
1783338289769543000,1.45054296875,0.0001929543213918805,0.001138451974838972,0.0006273528560996056
1783338289779515100,1.46051513671875,0.00011147093027830124,0.0005242130719125271,-0.0010530727449804544
1783338289789488000,1.470488037109375,0.0010606215801090002,-0.0005093598738312721,-0.0007657178211957216
1783338289799461000,1.480461181640625,0.0002586944028735161,-0.0012452257797122002,-0.00023418432101607323
1783338289809433000,1.49043310546875,0.0007713529048487544,0.000612861942499876,0.0001743445172905922
1783338289819406000,1.500406005859375,-0.001021770411171019,0.0005682646296918392,-0.0001727566123008728
1783338289829379000,1.510379150390625,-0.00023826851975172758,-0.000987820327281952,-0.00034559587948024273
1783338289839351000,1.52035107421875,0.000072603696025908,-0.001094713807106018,0.001202243147417903
1783338289849324000,1.530323974609375,0.0007032402791082859,0.0020901605021208525,-0.00009737932123243809
1783338289859297000,1.540297119140625,0.0005640879971906543,-0.00017470866441726685,-0.0005570952780544758
1783338289869269200,1.550269287109375,0.00022133917082101107,0.001300149830058217,-0.0005059628747403622
1783338289879242000,1.560241943359375,0.001463611493818462,-0.0013018092140555382,-0.000042374012991786
1783338289889214000,1.5702138671875,-0.00025812210515141487,-0.000061841681599617,0.0007421933114528656
1783338289899187200,1.580187255859375,0.0006303112022578716,0.000772133469581604,-0.0007718501146882772
1783338289909160000,1.590159912109375,-0.00003281584940850735,-0.001303800381720066,-0.0009004806634038687
1783338289919132000,1.6001318359375,-0.0005987896583974361,-0.001857103779911995,-0.0008240074384957552
1783338289929105200,1.610105224609375,-0.00039665587246418,-0.00006319861859083176,-0.00034703523851931095
1783338289939078100,1.620078125,0.00032758840825408697,0.0002748877741396427,-0.0012795098591595888
1783338289949049900,1.6300498046875,-0.00019305956084281206,0.0008730336558073759,0.000773254781961441
1783338289959023000,1.640023193359375,0.00011712033301591873,-0.00009588012471795082,0.00020536570809781551
1783338289968996000,1.64999609375,0.00026865419931709766,0.0004703076556324959,0.0004445177037268877
1783338289978967800,1.6599677734375,0.0015732599422335625,-0.0009500691667199135,0.0007445665542036295
1783338289988941000,1.669941162109375,0.0007644578581675887,0.0002645985223352909,-0.00027941889129579067
1783338289998913000,1.6799130859375,0.0005342481890693307,0.0012365174479782581,-0.0003128345124423504
1783338290008886000,1.689885986328125,0.00044663017615675926,-0.0014719171449542046,-0.0011527957394719124
1783338290018859000,1.69985888671875,0.000625859946012497,-0.0007744822651147842,-0.0007327783387154341
1783338290028831000,1.7098310546875,-0.0006183688528835773,-0.0009332066401839256,-0.0011242630425840616
1783338290038804000,1.719803955078125,0.0008120042039081454,-0.000526653602719307,-0.000015191733837127686
1783338290048777200,1.729777099609375,-0.0010085327085107565,0.00016976287588477135,-0.0001651276834309101
1783338290058749000,1.7397490234375,0.0004885644884780049,0.0009890622459352016,-0.0013061424251645803
1783338290068722000,1.749721923828125,0.0003886959748342633,-0.0005411901511251926,0.001132247969508171
1783338290078695200,1.759695068359375,-0.0014832615852355957,0.00007091136649250984,-0.000027216970920562744
1783338290088667000,1.7696669921875,-0.0017900578677654266,0.000010457821190357208,-0.0008155126124620438
1783338290098641000,1.779640869140625,-0.00038581015542149544,0.00015194667503237724,0.0011500490363687277
1783338290108613000,1.789613037109375,-0.00047129765152931213,-0.0006358162499964237,-0.0010033827275037766
1783338290118586000,1.799586181640625,0.0006436941912397742,-0.0013561057858169079,-0.00033798208460211754
1783338290128558800,1.809558837890625,0.00041040137875825167,0.001579762902110815,0.0012655069585889578
1783338290138531000,1.819531005859375,-0.0009644737001508474,0.00018426775932312012,0.0008755959570407867
1783338290148504000,1.829504150390625,0.0009569969843141735,-0.00198221392929554,0.0003472247626632452
1783338290158477000,1.83947705078125,0.0009203542722389102,0.00030211079865694046,-0.00041136937215924263
1783338290168449000,1.849448974609375,0.0007227477617561817,-0.0005913795903325081,0.000583321088925004
1783338290178422000,1.859422119140625,-0.00019292545039206743,-0.0006378465332090855,0.0011762056965380907
1783338290188395000,1.86939501953125,-0.0010850842809304595,-0.0005310536362230778,-0.0003505842760205269
1783338290198367000,1.879366943359375,-0.0005816462216898799,-0.0006038262508809566,-0.0008269080426543951
1783338290208340000,1.889340087890625,0.0002990611828863621,-0.00103073101490736,-0.00038935081101953983
1783338290218312000,1.89931201171875,0.0002631748793646693,0.0007007552776485682,0.00016198772937059402
1783338290228285200,1.90928515625,-0.00038903323002159595,-0.00010405201464891434,0.0007196536753326654
1783338290238258000,1.9192578125,0.00008718878962099552,-0.000896818470209837,-0.00009888038039207458
1783338290248230000,1.92922998046875,-0.0006515721324831247,0.0006749792955815792,-0.0015558958984911442
1783338290258203100,1.939203125,-0.00033690861891955137,0.0005721175111830235,-0.0002818838693201542
1783338290268176100,1.949176025390625,-0.0007574217161163688,-0.0011128643527626991,0.0007066815160214901
1783338290278147800,1.95914794921875,-0.00016872957348823547,-0.000951611902564764,-0.0011986189056187868
1783338290288121000,1.96912109375,-0.000056344084441661835,0.000758403679355979,-0.00008701533079147339
1783338290298094000,1.979093994140625,0.00022540672216564417,-0.0017045116983354092,-0.00044298265129327774
1783338290308065800,1.989065673828125,0.001262974226847291,-0.0005585537292063236,0.00040656584315001965
1783338290318039000,1.9990390625,0.0004820971516892314,-0.000862443819642067,0.00044843927025794983
1783338290328011000,2.009010986328125,-0.000619918922893703,-0.0003702915273606777,-0.00026528793387115
1783338290337984000,2.01898388671875,-0.0004925372777506709,-0.0007311347872018814,-0.00013564596883952618
1783338290347957000,2.02895703125,-0.0007005302468314767,0.0006076362915337086,0.0011187030468136072
1783338290357929000,2.038928955078125,0.0003253133036196232,-0.00030913716182112694,0.00166572374291718
1783338290367902000,2.04890185546875,0.0013074870221316814,0.000682357931509614,0.0007485311944037676
1783338290377875200,2.058875244140625,0.0002582891611382365,-0.0008593280799686909,0.0009391417261213064
1783338290387847000,2.068846923828125,-0.000300175859592855,-0.000007383059710264206,-0.0008789983112365007
1783338290397820000,2.07881982421875,-0.0010472320718690753,-0.0009118262678384781,-0.0006183332297950983
1783338290407792000,2.088792236328125,0.0004979339428246021,0.0007521165534853935,-0.0012433768715709448
1783338290417764900,2.098764892578125,-0.00019732431974262,0.0010648986790329218,0.001139132073149085
1783338290427737900,2.10873779296875,-0.00012515264097601175,0.0003415844403207302,-0.0010704926680773497
1783338290437710000,2.1187099609375,0.0004478015471249819,-0.0015679560601711273,-0.0010096034966409206
1783338290447682800,2.128682861328125,-0.00002624106127768755,-0.000041165854781866074,-0.0004961462691426277
1783338290457655800,2.13865576171875,0.000787851051427424,0.0007168566808104515,0.0004001269116997719
1783338290467628000,2.1486279296875,0.00013484398368746042,0.0012428308837115765,-0.0010486328974366188
1783338290477601000,2.15860107421875,-0.00040269072633236647,-0.00041238218545913696,-0.00047777523286640644
1783338290487573800,2.16857373046875,-0.0003030885709449649,-0.0013900287449359894,-0.000034359050914645195
1783338290497546000,2.1785458984375,0.0005083385622128844,0.0012887513730674982,-0.0004082007799297571
1783338290507519000,2.18851904296875,0.000014322111383080482,-0.0008156783878803253,-0.00042790803126990795
1783338290517491000,2.198490966796875,-0.00044037867337465286,0.0002346821129322052,-0.00008590542711317539
1783338290527464000,2.2084638671875,-0.000681661069393158,0.0006866208277642727,0.0002983887679874897
1783338290537437000,2.21843701171875,0.0010078174527734518,0.001088934252038598,0.0012834207154810429
1783338290547409200,2.2284091796875,0.0005625368794426322,-0.00024317903444170952,0.0008059157989919186
1783338290557382000,2.2383818359375,0.0008498774841427803,0.0005682273767888546,0.0004083935637027025
1783338290567355000,2.24835498046875,-0.00004041730426251888,-0.0018406016752123833,-0.0000067930668592453
1783338290577327000,2.2583271484375,-0.0015159433241933584,-0.0001882496289908886,-0.0004672061186283827
1783338290587300000,2.268300048828125,0.0002902125706896186,-0.0002505676820874214,0.000026810448616743088
1783338290597272800,2.27827294921875,0.0006160163320600986,-0.0017826445400714874,-0.00022860406897962093
1783338290607245000,2.2882451171875,-0.0004122302634641528,-0.0001338813453912735,-0.0002922534476965666
1783338290617218000,2.298218017578125,0.0004450934939086437,-0.00010861735790967941,0.0016264948062598705
1783338290627189800,2.308189697265625,0.0011007636785507202,0.000540128443390131,-0.0003610223066061735
1783338290637163000,2.3181630859375,-0.000770293758250773,-0.00009271036833524704,0.00018508010543882847
1783338290647136000,2.328135986328125,0.0023112499620765448,-0.0005121580325067043,0.0002671054098755121
1783338290657108000,2.33810791015625,-0.002176152542233467,-0.0004398152232170105,0.001052134670317173
1783338290667081000,2.3480810546875,-0.0017540411790832877,-0.0010472824797034264,0.0011312304995954037
1783338290677054000,2.358053955078125,0.0004005505470559001,-0.0008420734666287899,0.00022262590937316418
1783338290687026000,2.36802587890625,-0.00013261428102850914,0.00006260210648179054,0.00030651548877358437
1783338290696999200,2.377999267578125,0.0009370265761390328,-0.0006174361333250999,0.00019501429051160812
1783338290706971000,2.387970947265625,0.0003849533386528492,0.00029496243223547935,0.00012950063683092594
1783338290716944000,2.39794384765625,0.00015383190475404263,0.001727901864796877,0.00016406364738941193
1783338290726917000,2.407917236328125,0.0016430715331807733,-0.0017483225092291832,0.0005907020531594753
1783338290736888800,2.417888916015625,0.0013385425554588437,0.00035284366458654404,-0.00004670582711696625
1783338290746861800,2.42786181640625,0.0004413236165419221,0.0004945239052176476,0.0004007052630186081
1783338290756835000,2.4378349609375,-0.00009510468225926161,0.0006635487079620361,-0.0003452431410551071
1783338290766807000,2.44780712890625,0.000415423302911222,-0.0014808285050094128,0.00045024300925433636
1783338290776779800,2.45777978515625,0.00022548914421349764,-0.0011893240734934807,-0.0013961941003799438
1783338290786753000,2.4677529296875,0.0013003409840166569,0.00027301767840981483,0.0006123618222773075
1783338290796725000,2.47772509765625,-0.0008366871625185013,0.000807903939858079,-0.0007911480497568846
1783338290806698000,2.487697998046875,0.00004774867556989193,0.001208975911140442,-0.0018063450697809458
1783338290816670000,2.497669921875,0.0009486755006946623,0.0006953873671591282,-0.0002854543272405863
1783338290826643000,2.507642822265625,-0.0004220535047352314,-0.0010282103903591633,-0.0006804007571190596
1783338290836616000,2.517615966796875,0.0001961656380444765,0.0001827990636229515,0.0011311473790556192
1783338290846588000,2.527587890625,-0.0001247453037649393,0.0014115814119577408,0.000007559778168797493
1783338290856561000,2.537560791015625,0.0005042932461947203,-0.0012429608032107353,-0.0011611052323132753
1783338290866534000,2.547533935546875,-0.0008248904487118125,0.0007022120989859104,-0.0001552291214466095
1783338290876506000,2.557506103515625,0.0004634343786165118,0.00048469705507159233,0.000285216374322772
1783338290886478800,2.567478759765625,0.000050644390285015106,-0.001987248659133911,0.00010998034849762917
1783338290896451000,2.577451171875,0.000023499014787375927,-0.00015228567644953728,0.000625403830781579
1783338290906424000,2.587424072265625,0.0008613294921815395,0.0013526666443794966,0.00019743386656045914
1783338290916396800,2.597396728515625,-0.0011539296247065067,0.00035635847598314285,0.000938355689868331
1783338290926369000,2.607369140625,-0.000666038366034627,0.0003861859440803528,-0.0008438318036496639
1783338290936342000,2.617342041015625,-0.00039085664320737123,-0.0014766999520361423,-0.0008461503311991692
1783338290946315000,2.62731494140625,0.0003505675122141838,0.000872740987688303,0.0026998487301170826
1783338290956287000,2.637286865234375,-0.001002516713924706,0.0006028097122907639,0.00018151639960706234
1783338290966260000,2.647260009765625,0.00042280706111341715,0.00028402963653206825,0.00020042480900883675
1783338290976233000,2.65723291015625,-0.00014127790927886963,0.00027556903660297394,-0.00010221730917692184
1783338290986205000,2.667204833984375,-0.0010550084989517927,0.0007735802792012691,0.0010320229921489954
1783338290996178000,2.677177978515625,-0.00015545240603387356,0.000627466943114996,0.0015351136680692434
1783338291006150000,2.68714990234375,0.00018623110372573137,-0.00020823301747441292,0.0004583976697176695
1783338291016123100,2.697123046875,-0.00012130953837186098,-0.002494113054126501,-0.0013020937331020832
1783338291026095900,2.707095947265625,0.0003498037112876773,0.000643889419734478,0.0007986077107489109
1783338291036067800,2.71706787109375,-0.0003374337684363127,0.0006273160688579082,0.00026010535657405853
1783338291046041000,2.727041015625,-0.00023809797130525112,0.0003354335203766823,-0.0000695937778800726
1783338291056014000,2.73701416015625,-0.0010840799659490585,-0.0018017375841736794,-0.0012032808735966682
1783338291065985800,2.74698583984375,-0.0014121814165264368,0.0014443895779550076,-0.0005705137737095356
1783338291075959000,2.756958984375,0.00023558817338198423,0.0006690369918942451,-0.00010938523337244987
1783338291085931000,2.766930908203125,-0.0008384645916521549,-0.00034003471955657005,0.000321780564263463
1783338291095903500,2.776903564453125,-0.00035041896626353264,-0.0015059448778629303,-0.0008459312375634909
1783338291105876500,2.78687646484375,-0.00014322495553642511,0.001265340717509389,0.0001535529736429453
1783338291115848200,2.79684814453125,0.0003207672853022814,-0.0002958262339234352,0.0008113314397633076
1783338291125821400,2.806821533203125,0.00020172400400042534,-0.001129928044974804,0.0004486090037971735
1783338291135794400,2.81679443359375,0.00006908434443175793,-0.000999931711703539,-0.0008288095705211163
1783338291145766100,2.82676611328125,-0.0013668921310454607,0.0007463027723133564,-0.0017918087542057037
1783338291155739400,2.836739501953125,-0.0006716023199260235,-0.0005375491455197334,-0.0008460036478936672
1783338291165711400,2.84671142578125,-0.001619421411305666,-0.0004395446740090847,0.0007385769858956337
1783338291175684400,2.856684326171875,-0.0009866131003946066,0.00010488927364349365,0.00018481514416635036
1783338291185657300,2.8666572265625,-0.0005051135085523129,-0.00009138556197285652,-0.00008336524479091167
1783338291195629300,2.87662939453125,-0.00007518043275922537,0.000421975739300251,0.00013052881695330143
1783338291205602300,2.886602294921875,-0.0007074149325489998,0.0012901665177196264,-0.0005592301022261381
1783338291215575600,2.896575439453125,-0.0009671387961134315,0.00029047252610325813,0.0001547057181596756
1783338291225547300,2.90654736328125,0.0007127831922844052,0.0008420129306614399,-0.00006447243504226208
1783338291235520300,2.916520263671875,0.0018800077959895134,0.0006296695210039616,0.001742374850437045
1783338291245493500,2.926493408203125,-0.0012023348826915026,0.00113194203004241,0.0014691345859318972
1783338291255465200,2.93646533203125,0.0013534959871321917,-0.0019287117756903172,-0.0007198648527264595
1783338291265438200,2.946438232421875,0.001063211471773684,-0.00032282527536153793,0.000353122828528285
1783338291275410400,2.956410400390625,0.0008512074127793312,0.0008213161490857601,-0.0005054764915257692
1783338291285383400,2.966383544921875,-0.0008537482935935259,-0.0010948283597826958,-0.0014418435748666525
1783338291295356200,2.976356201171875,0.0016121008666232228,-0.00038313446566462517,-0.0003999429754912853
1783338291305328400,2.986328369140625,0.00007199484389275312,0.0001377798616886139,0.0026078312657773495
1783338291315301400,2.99630126953125,-0.00047161360271275043,-0.0004912759177386761,-0.0013282163999974728
1783338291325274400,3.0062744140625,0.0007619624957442284,-0.0004049898125231266,-0.0006232778541743755
1783338291335246300,3.016246337890625,0.000355539727024734,-0.0011599422432482243,-0.0010176599025726318
1783338291345219300,3.02621923828125,-0.0015864373417571187,-0.0009032138623297215,-0.00017317174933850765
1783338291355191300,3.03619140625,-0.0011532341595739126,-0.0004381784237921238,0.0009280447848141193
1783338291365164300,3.046164306640625,0.0000033766264095902443,0.0002723527140915394,0.001031641848385334
1783338291375137300,3.05613720703125,-0.0011623194441199303,-0.0008586724288761616,-0.00007217098027467728
1783338291385109500,3.066109619140625,-0.0002648341469466686,-0.0014014244079589844,0.0001688450574874878
1783338291395082200,3.076082275390625,-0.0002732259454205632,-0.00016205431893467903,-0.0007946141995489597
1783338291405055200,3.08605517578125,-0.0008687089430168271,0.0006089308299124241,0.0007257845718413591
1783338291415027500,3.09602734375,0.0004304902395233512,0.0015766615979373455,0.0006477285642176867
1783338291425000400,3.10600048828125,0.0005069229518994689,-0.00003561610355973244,-0.0006399098783731461
1783338291434973200,3.11597314453125,0.001348424586467445,-0.0010164212435483932,0.0010413220152258873
1783338291444945400,3.1259453125,-0.00004866975359618664,-0.0009815338999032974,0.00016194628551602364
1783338291454918400,3.13591845703125,-0.00008439843077212572,-0.0004994357004761696,0.00020282389596104622
1783338291464890400,3.145890380859375,-0.00005723407957702875,-0.00114791514351964,-0.0013740337453782558
1783338291474863400,3.15586328125,0.0009862270671874285,0.0012258617207407951,0.000028581591323018074
1783338291484836400,3.16583642578125,-0.00037038722075521946,0.0006745874416083097,0.00022112810984253883
1783338291494808300,3.175808349609375,0.0015706934500485659,-0.0007564444094896317,-0.0016411570832133293
1783338291504781300,3.18578125,-0.0007699588313698769,-0.0007322095334529877,-0.00021530082449316978
1783338291514753300,3.195753173828125,-0.000049441587179899216,0.0007223621942102909,0.00045601697638630867
1783338291524726300,3.205726318359375,0.00044537370558828115,0.0015644535887986422,-0.00030564703047275543
1783338291534699500,3.215699462890625,-0.00013145734556019306,-0.0005056164227426052,0.0008189927320927382
1783338291544671200,3.225671142578125,-0.00032107438892126083,-0.000330380629748106,-0.00042496994137763977
1783338291554644200,3.235644287109375,-0.0003618763294070959,0.0003253617323935032,0.0005523287691175938
1783338291564617500,3.245617431640625,-0.002039667684584856,-0.00017877481877803802,-0.000027175061404705048
1783338291574589200,3.255589111328125,-0.0010530513245612383,-0.0011160303838551044,-0.0008337039034813643
1783338291584562200,3.265562255859375,-0.0005276096053421497,-0.0007842006161808968,-0.0008286440279334784
1783338291594535400,3.275535400390625,0.000903015024960041,0.00126934377476573,0.0008340587373822927
1783338291604507400,3.28550732421875,0.00048729556147009134,0.00004961574450135231,-0.0005004513077437878
1783338291614480400,3.29548046875,0.00011805468238890171,-0.0007535209879279137,0.0008664263878017664
1783338291624452400,3.305452392578125,0.0005244531203061342,0.0006595524027943611,0.0015455326065421104
1783338291634425300,3.31542529296875,0.001138828694820404,-0.0005787573754787445,0.0007023634389042854
1783338291644398300,3.3253984375,-0.0005706544034183025,-0.0002019200474023819,-0.00023293867707252502
1783338291654370300,3.335370361328125,0.00030612212140113115,0.0013441848568618298,0.0008370520081371069
1783338291664343300,3.34534326171875,-0.0003064048942178488,-0.000028142239898443222,0.0005086841993033886
1783338291674316300,3.35531640625,-0.0000822865404188633,-0.00014688726514577866,-0.000002784188836812973
1783338291684288300,3.365288330078125,0.0012325160205364227,-0.0014230739325284958,-0.00020838039927184582
1783338291694261200,3.37526123046875,-0.001867285231128335,-0.0010120547376573086,-0.0009851742070168257
1783338291704233500,3.3852333984375,0.00002435804344713688,-0.00039153778925538063,0.0006010048091411591
1783338291714206500,3.39520654296875,-0.0007911035791039467,0.00006639491766691208,-0.0005250794347375631
1783338291724179200,3.40517919921875,-0.0014345233794301748,0.0009055568370968103,0.000978807918727398
1783338291734151400,3.4151513671875,0.000029022106900811195,0.0015906631015241146,0.001399531029164791
1783338291744124400,3.42512451171875,-0.0014663427136838436,0.0007376524154096842,-0.000582926208153367
1783338291754097400,3.435097412109375,0.0020756542216986418,-0.0015351232141256332,-0.0009063419420272112
1783338291764069400,3.4450693359375,0.0013336976990103722,-0.0003830399364233017,0.0003418817650526762
1783338291774042400,3.45504248046875,0.0009393112268298864,0.0011425255797803402,0.00035579479299485683
1783338291784014300,3.465014404296875,-0.0013430179096758366,0.00018165726214647293,-0.000650347676128149
1783338291793987300,3.4749873046875,-0.0016777776181697845,0.0003576730377972126,0.0010569687001407146
1783338291803960300,3.484960205078125,-0.00000477978028357029,-0.000844211783260107,0.0003062235191464424
1783338291813932500,3.4949326171875,0.0012139377649873495,-0.0015740972012281418,-0.001161397434771061
1783338291823905300,3.5049052734375,-0.0015078128781169653,0.001580151030793786,0.000006665010005235672
1783338291833878300,3.514878173828125,-0.0006668413989245892,-0.0005929144099354744,0.00015491992235183716
1783338291843850500,3.5248505859375,0.0011947082821279764,-0.0016022524796426296,-0.00019981316290795803
1783338291853823500,3.534823486328125,-0.000353323295712471,0.0000451868399977684,0.000054574571549892426
1783338291863795200,3.544795166015625,-0.0002654388081282377,0.0008031222969293594,-0.00016886461526155472
1783338291873768400,3.5547685546875,-0.00008777552284300327,0.00035200826823711395,0.00005383836105465889
1783338291883741400,3.564741455078125,-0.0001634091604501009,-0.0008586649782955647,0.00013106991536915302
1783338291893713200,3.574713134765625,-0.0005097603425383568,0.00045101577416062355,0.00023485906422138214
1783338291903686400,3.584686279296875,0.0007328707724809647,0.0019402552861720324,-0.0000021622981876134872
1783338291913659400,3.594659423828125,-0.00021760701201856136,0.0002588275820016861,0.0013739175628870726
1783338291923631400,3.60463134765625,-0.00016034883446991444,-0.00036275433376431465,0.000990688567981124
1783338291933604400,3.614604248046875,-0.0007632547058165073,0.0006837188266217709,0.0003346360754221678
1783338291943577300,3.624577392578125,-0.00027669500559568405,0.0007902455981820822,0.0006070774979889393
1783338291953549300,3.63454931640625,-0.0011197004932910204,0.0032875165343284607,0.0019326324108988047
1783338291963522600,3.6445224609375,-0.00021768780425190926,-0.0005516964010894299,-0.0001267900224775076
1783338291973494300,3.654494384765625,0.00020017067436128855,-0.0013154130429029465,0.00030348217114806175
1783338291983467300,3.66446728515625,0.00046488887164741755,0.002362678525969386,-0.00039240182377398014
1783338291993440500,3.6744404296875,0.0005862413672730327,-0.001055730041116476,-0.00007695797830820084
1783338292003412200,3.684412109375,0.0006719951052218676,-0.0008384161628782749,-0.00040026591159403324
1783338292013385200,3.69438525390625,0.000946511048823595,-0.0016626943834125996,-0.0005147624760866165
1783338292023358500,3.7043583984375,0.0005646137287840247,0.0011994049418717623,-0.00033180322498083115
1783338292033330400,3.714330322265625,-0.00025330367498099804,-0.0002890508621931076,-0.001356408465653658
1783338292043303200,3.72430322265625,0.0003259339137002826,0.0006124288775026798,-0.0011995481327176094
1783338292053275400,3.734275390625,0.0013083545491099358,-0.0012993989512324333,-0.0011431858874857426
1783338292063248400,3.744248291015625,-0.0008402836974710226,0.0010758745484054089,-0.00048645026981830597
1783338292073221400,3.754221435546875,-0.0004817061126232147,0.0000600120984017849,0.00014193449169397354
1783338292083193300,3.764193359375,-0.0004971523303538561,-0.00016662292182445526,-0.0014237379655241966
1783338292093167000,3.7741669921875,0.00016740825958549976,-0.0013349559158086777,-0.0012253210879862309
1783338292103140000,3.78414013671875,-0.00009890785440802574,-0.00029898621141910553,0.00019733957014977932
1783338292113112300,3.7941123046875,0.00041626032907515764,-0.00016491347923874855,0.0006492037791758776
1783338292123085000,3.8040849609375,-0.000263644615188241,-0.00004107644781470299,-0.0008592107333242893
1783338292133057000,3.81405712890625,-0.001236727461218834,0.0010894224978983402,-0.0003989962860941887
1783338292143030300,3.8240302734375,0.00018433528020977974,0.0001525222323834896,-0.0015806411392986774
1783338292153003300,3.834003173828125,0.0005551549838855863,0.0012945164926350117,0.0009164833463728428
1783338292162975000,3.84397509765625,-0.0000123647041618824,-0.00023387186229228973,0.00010288762860000134
1783338292172948200,3.8539482421875,-0.00008318712934851646,-0.0012589041143655777,0.00042832992039620876
1783338292182921200,3.863921142578125,-0.00026481482200324535,-0.00012839213013648987,-0.001669708639383316
1783338292192893000,3.873892822265625,-0.0005661505274474621,0.001154888654127717,-0.0003585966769605875
1783338292202866200,3.8838662109375,0.0012317495420575142,-0.0000941338948905468,-0.0002616576384752989
1783338292212838100,3.893838134765625,0.0007346764905378222,-0.0009354320354759693,0.0007841505575925112
1783338292222811000,3.903810791015625,0.0008784872479736805,0.0009202584624290466,0.00017615105025470257
1783338292232784100,3.9137841796875,0.0006507212528958917,0.0005812752060592175,-0.0006541835609823465
1783338292242756000,3.923756103515625,0.001264047110453248,-0.0007255380041897297,-0.0009343482088297606
1783338292252729000,3.93372900390625,-0.00005505303852260113,0.00024059554561972618,0.000022704247385263443
1783338292262702000,3.9437021484375,0.0003436221741139889,-0.0001929672434926033,0.00042271101847290993
1783338292272674000,3.953674072265625,0.00012855068780481815,0.0002154344692826271,-0.0018050195649266243
1783338292282647000,3.96364697265625,-0.0006144712679088116,0.0004252912476658821,-0.0005496055819094181
1783338292292619000,3.973618896484375,-0.0011466203723102808,0.000011792406439781189,-0.001604792894795537
1783338292302592000,3.983592041015625,0.0007969544967636466,-0.0005799615755677223,0.00007140077650547028
1783338292312565000,3.99356494140625,-0.0009817820973694324,0.0004717400297522545,0.0005759834311902523
1783338292322537200,4.003537109375,0.00011410866864025593,-0.0012478632852435112,0.00041219894774258137
1783338292332510000,4.013510009765625,0.001668652635999024,-0.0008456283248960972,-0.000924454303458333
1783338292342483000,4.02348291015625,0.00024332886096090078,-0.0010616108775138855,0.000812991987913847
1783338292352455200,4.033455078125,-0.0007800098974257708,0.0004889843985438347,-0.000938488868996501
1783338292362428200,4.04342822265625,-0.000007959548383951187,0.0005510360933840275,-0.00047616451047360897
1783338292372400000,4.053400146484375,-0.0001405184157192707,-0.0017781550996005535,-0.0003057627473026514
1783338292382373000,4.063373046875,-0.001162639819085598,-0.0010303398594260216,-0.0007755442056804895
1783338292392346000,4.07334619140625,-0.00003919564187526703,-0.0008231480605900288,0.0012022361624985933
1783338292402318000,4.083318115234375,-0.0020863672252744436,-0.00021088728681206703,0.0007873156573623419
1783338292412291000,4.093291015625,0.0006425721803680062,0.0009362406563013792,-0.0006884483154863119
1783338292422264000,4.10326416015625,-0.00040777865797281265,-0.000006251968443393707,-0.0006897796411067247
1783338292432236300,4.113236328125,0.0007756149861961603,0.0006857286207377911,0.0008739940822124481
1783338292442209000,4.123208984375,0.0006597674218937755,0.0010910618584603071,0.0001522775273770094
1783338292452181000,4.133180908203125,-0.0006477872375398874,-0.00022233463823795319,0.0014984465669840574
1783338292462154200,4.143154296875,0.0003458381397649646,-0.0007219435647130013,-0.0015133223496377468
1783338292472127200,4.153127197265625,-0.0012185820378363132,0.0004748394712805748,-0.00047746114432811737
1783338292482099000,4.163098876953125,0.0009172731079161167,-0.0005507436580955982,0.0008298845496028662
1783338292492072200,4.173072265625,0.001539668650366366,-0.00008660741150379181,0.0004391944967210293
1783338292502045200,4.183045166015625,9.522773325443268e-8,-0.001122310757637024,-0.00014670100063085556
1783338292512017000,4.193016845703125,-0.00027189310640096664,0.000030304770916700363,0.00016202707774937153
1783338292521990100,4.202990234375,0.0005587468622252345,-0.0010309647768735886,0.0004560400266200304
1783338292531962000,4.212962158203125,0.0014808066189289093,-0.0013520228676497936,0.0008945451118052006
1783338292541935000,4.22293505859375,-0.0012694397009909153,0.0009710525628179312,0.0009302315302193165
1783338292551908000,4.232908203125,-0.000735035166144371,-0.00008856598287820816,0.0006393815856426954
1783338292561880000,4.242880126953125,0.0008721825433894992,-0.0014068307355046272,0.00017039873637259007
1783338292571853000,4.25285302734375,0.00010926276445388794,0.0005846833810210228,-0.0002078535035252571
1783338292581826300,4.262826416015625,0.0012411060743033886,0.0015431551728397608,-0.0005372865125536919
1783338292591798000,4.272798095703125,0.001456363359466195,-0.0006361044943332672,0.00009759422391653061
1783338292601771000,4.28277099609375,0.0007335814880207181,-0.0013732677325606346,-0.0021996484138071537
1783338292611743200,4.2927431640625,-0.00024136085994541645,0.0010351466480642557,-0.0004457880277186632
1783338292621716000,4.302716064453125,0.0006273622857406735,0.0010085150133818388,0.0009236095938831568
1783338292631689000,4.31268896484375,-0.0016214067582041025,-0.0011413944885134697,-0.0008101528510451317
1783338292641661200,4.3226611328125,0.00045106513425707817,-0.00047400640323758125,-0.000002682674676179886
1783338292651634200,4.33263427734375,0.00018118927255272865,0.0003891712985932827,-0.00009299302473664284
1783338292661606100,4.342606201171875,0.00019503780640661716,0.0008765300735831261,0.001540057361125946
1783338292671579100,4.3525791015625,0.00064444774761796,-0.0007814494892954826,0.00044070719741284847
1783338292681552100,4.36255224609375,0.0011150282807648182,0.0002790214493870735,-0.0023241867311298847
1783338292691524000,4.372524169921875,0.0019564181566238403,-0.00010898243635892868,0.00006344728171825409
1783338292701497000,4.3824970703125,-0.0004651942290365696,0.000520855188369751,0.0008014091290533543
1783338292711470000,4.392469970703125,0.0007900731870904565,-0.0012361109256744385,-0.0023556617088615894
1783338292721442000,4.402442138671875,0.00004065968096256256,-0.0014371797442436218,-0.0014192946255207062
1783338292731415000,4.4124150390625,-0.0008325632661581039,-0.0014843945391476154,0.0002537178806960583
1783338292741387000,4.422386962890625,0.00017198105342686176,0.000844540074467659,0.0013567993883043528
1783338292751360300,4.4323603515625,0.0001321554882451892,-0.0014830129221081734,0.0010776820126920938
1783338292761333000,4.4423330078125,0.0007196489023044705,-0.0007626279257237911,-0.00027307355776429176
1783338292771305000,4.452304931640625,0.0006140440236777067,0.0003777984529733658,0.000045470427721738815
1783338292781278200,4.4622783203125,0.0005416059866547585,0.0017306841909885406,0.001179178012534976
1783338292791251200,4.472251220703125,-0.00014144927263259888,0.0006287312135100365,0.0015509056393057108
1783338292801223000,4.482222900390625,0.000227132230065763,0.00030782027170062065,-0.00009279721416532993
1783338292811196200,4.492196044921875,0.002266211435198784,-0.0005044662393629551,0.00030980538576841354
1783338292821168000,4.502168212890625,0.00023528491146862507,-0.0008149910718202591,0.0006054162513464689
1783338292831141000,4.51214111328125,0.0001723750028759241,0.00038066552951931953,-0.00001308787614107132
1783338292841114000,4.522114013671875,-0.000027628382667899132,0.0006749450694769621,-0.0001377237495034933
1783338292851086000,4.532086181640625,0.0011707888916134834,-0.001032122876495123,0.0008960682898759842
1783338292861059000,4.54205908203125,0.0010488161351531744,-0.0007141414098441601,0.0007024563383311033
1783338292871032000,4.552031982421875,-0.0011710510589182377,0.000956907169893384,-0.0002782456576824188
1783338292881004000,4.562004150390625,0.00042684562504291534,-0.0003376556560397148,0.0001694315578788519
1783338292890977000,4.57197705078125,0.0006015575490891933,0.0006684735417366028,-0.00009526358917355537
1783338292900949000,4.581948974609375,-0.0005108448676764965,-0.0010460694320499897,0.0009590818081051111
1783338292910922000,4.591921875,0.0004508976126089692,0.00022372417151927948,-0.0002667561639100313
1783338292920895000,4.60189501953125,-0.00016961898654699326,0.0012058978900313377,0.0004967721179127693
1783338292930867200,4.6118671875,0.0003408136544749141,0.0005641374737024307,-0.0006913368124514818
1783338292940840000,4.62183984375,0.0001852851128205657,0.0021673603914678097,0.001024005003273487
1783338292950813000,4.63181298828125,-0.00036405189894139767,0.0007046791724860668,0.0007642398122698069
1783338292960785200,4.64178515625,0.0004426194354891777,0.0010908376425504684,0.0007088459096848965
1783338292970758100,4.651758056640625,0.0003005174221470952,-0.0006891391240060329,-0.0012044582981616259
1783338292980730000,4.661730224609375,0.00016256561502814293,0.001972956582903862,0.001727948198094964
1783338292990703000,4.671703125,0.00021868001203984022,0.0012789980974048376,0.002683451399207115
1783338293000676000,4.681676025390625,0.000146774691529572,-0.0013394220732152462,-0.0006079496815800667
1783338293010648000,4.69164794921875,-0.00033012358471751213,-0.00037086615338921547,-0.00043884152546525
1783338293020621000,4.70162109375,0.00011009688023477793,-0.0004989639855921268,0.00007967581041157246
1783338293030594000,4.711593994140625,-0.00042011612094938755,0.0005830684676766396,0.0019516621250659227
1783338293040566300,4.721566162109375,0.00040679541416466236,-0.0010076379403471947,0.0007582996040582657
1783338293050539000,4.7315390625,0.00031969614792615175,-0.000293034128844738,-0.0008497657254338264
1783338293060511200,4.74151123046875,-0.0007828525267541409,-0.0011007706634700298,-0.000209808349609375
1783338293070484200,4.751484130859375,-0.00047558662481606007,0.0005670757964253426,-0.00048596179112792015
1783338293080457200,4.761457275390625,-0.001533926697447896,-0.0003213547170162201,-0.0003349608741700649
1783338293090429200,4.77142919921875,-0.0003485269844532013,-0.000841798260807991,0.0002863083500415087
1783338293100401700,4.781401611328125,0.0014778689946979284,0.0006684802938252687,0.0014072328340262175
1783338293110374700,4.791374755859375,0.0014343808870762587,-0.0006637480109930038,0.0006998591125011444
1783338293120346600,4.8013466796875,-0.0012074748519808054,-0.0010086274705827236,-0.0008413118775933981
1783338293130319600,4.811319580078125,0.00026997586246579885,-0.0009392737410962582,0.0003798454999923706
1783338293140291600,4.82129150390625,0.0010774463880807161,-0.0001147594302892685,-0.00008460995741188526
1783338293150264600,4.8312646484375,0.002742629498243332,0.001744347158819437,0.0013694760855287313
1783338293160237600,4.841237548828125,0.00102382549084723,0.000414098147302866,-0.0006832885555922985
1783338293170209500,4.85120947265625,0.0008993665687739849,-0.0007447097450494766,0.0007778187282383442
1783338293180182800,4.861182861328125,0.0003867080667987466,-0.000632057897746563,-0.0002581507433205843
1783338293190154500,4.871154541015625,-0.000005527515895664692,0.00024630920961499214,0.00021495227701961994
1783338293200127500,4.88112744140625,0.001213401323184371,-0.0008378638885915279,-0.000004225876182317734
1783338293210100700,4.891100830078125,0.000005489331670105457,-0.0002870154567062855,-0.0008464236743748188
1783338293220072400,4.901072509765625,0.00001454399898648262,-0.001223383005708456,0.001175714423879981
1783338293230045400,4.91104541015625,0.0005909050814807415,0.0017731159459799528,0.0003650656435638666
1783338293240018700,4.921018798828125,-0.00046850042417645454,-0.001885801088064909,0.0007680018898099661
1783338293249990700,4.93099072265625,-0.0005030939355492592,0.0005389461293816566,-0.0006749772001057863
1783338293259963400,4.94096337890625,0.0007746906485408545,0.001199676189571619,0.000964730978012085
1783338293269935600,4.950935546875,0.00009870785288512707,0.0005905819125473499,-0.0018008728511631489
1783338293279908600,4.96090869140625,0.0010944637469947338,-0.0012693698517978191,-0.0006144349463284016
1783338293289881600,4.970881591796875,0.0011491376208141446,0.000534373801201582,0.00019273534417152405
1783338293299853600,4.980853515625,-0.0005297191673889756,0.0011623473837971687,0.0013187197037041187
1783338293309826600,4.99082666015625,-0.00018937117420136929,0.00029425323009490967,-0.0010818771552294493
1783338293319799600,5.000799560546875,0.0003238200442865491,-0.0008248072117567062,-0.0009607032407075167
1783338293329771500,5.010771484375,-0.00046424928586930037,-0.0008819852955639362,0.0015785663854330778
1783338293339744500,5.02074462890625,-0.0003358848625794053,0.001234961673617363,-0.0010912525467574596
1783338293349716700,5.030716796875,-0.0016068507684394717,-0.0005224626511335373,0.002029459923505783
1783338293359689700,5.040689697265625,0.0010717567056417465,0.0006400072015821934,-0.0008976205717772245
1783338293369662500,5.050662353515625,0.0009073096443898976,-0.00021178089082241058,-0.0008326515089720488
1783338293379634700,5.060634765625,0.0008140989812090993,0.00017863884568214417,-0.00035301619209349155
1783338293389607700,5.070607666015625,-0.0006784519646316767,0.0006487872451543808,0.00007492583245038986
1783338293399579600,5.08057958984375,-0.0007290521170943975,-0.0010753432288765907,-0.00010110926814377308
1783338293409552600,5.090552734375,0.00042456237133592367,-0.0011199833825230598,-0.00031272508203983307
1783338293419525600,5.100525634765625,0.0005302898352965713,-0.0010531381703913212,-0.0013678695540875196
1783338293429497600,5.11049755859375,0.0004689666675403714,0.0011063413694500923,0.0009164563380181789
1783338293439470600,5.120470703125,-0.00011559715494513512,-0.0005293721333146095,-0.0011243242770433426
1783338293449443600,5.130443603515625,0.00022707879543304443,0.0008779601193964481,-0.0014555379748344421
1783338293459415600,5.14041552734375,0.0004097716882824898,0.00018154364079236984,-0.0008709742687642574
1783338293469388500,5.150388427734375,-0.0006873608799651265,-0.00005123205482959747,-0.0001893755979835987
1783338293479360500,5.160360595703125,0.0005499438848346472,0.0001551625318825245,0.0007994561456143856
1783338293489333500,5.17033349609375,0.0008900743559934199,0.0007062815129756927,0.0018255544127896428
1783338293499306800,5.180306640625,0.0007766237249597907,-0.00012941844761371613,0.0004995665512979031
1783338293509278500,5.190278564453125,0.0003390058409422636,-0.0012367181479930878,0.0001279604621231556
1783338293519251700,5.200251708984375,-0.0014168161433190107,-0.00036906031891703606,-0.00013436074368655682
1783338293529224700,5.210224609375,-0.0002710155677050352,-0.000043256208300590515,0.00007658055983483791
1783338293539196400,5.220196533203125,0.0009617616888135672,-0.0004789493978023529,-0.00016416911967098713
1783338293549169700,5.230169677734375,-0.001772059127688408,-0.0002931528724730015,-0.000014614081010222435
1783338293559141600,5.2401416015625,0.000717996503226459,-0.001730194315314293,-0.0008045076392591
1783338293569114600,5.250114501953125,0.0006582555361092091,-0.0008134385570883751,0.0012186099775135517
1783338293579087600,5.260087646484375,0.0014785091625526547,-0.0012629800476133823,0.00048517552204430103
1783338293589059600,5.2700595703125,-0.0009918475989252329,-0.0007170955650508404,-0.0012677516788244247
1783338293599032600,5.280032470703125,0.00025477807503193617,0.0006861239671707153,0.0004209587350487709
1783338293609005600,5.290005615234375,-0.00035021593794226646,0.0016499492339789867,-0.00028433604165911674
1783338293618977500,5.2999775390625,0.00007402559276670218,-0.0006174659356474876,-0.00035650795325636864
1783338293628950500,5.309950439453125,0.0002208327641710639,-0.0003893682733178139,-0.00012325146235525608
1783338293638922800,5.3199228515625,0.0011063339188694954,0.0011613902170211077,-0.0007874439470469952
1783338293648895500,5.3298955078125,-0.00003673520404845476,0.00002154102548956871,-0.0006541553884744644
1783338293658868500,5.339868408203125,0.0005877760704606771,0.0005800058133900166,-0.00259906193241477
1783338293668840700,5.3498408203125,-0.002181378426030278,-0.00030708126723766327,0.0007525070104748011
1783338293678813700,5.359813720703125,-0.0002620385494083166,0.0005105091258883476,-0.0008525801822543144
1783338293688785700,5.36978564453125,-0.0008425005944445729,0.0007703995797783136,0.002844492206349969
1783338293698758700,5.379758544921875,-0.0007306478219106793,0.0009301891550421715,-0.00011774175800383091
1783338293708731600,5.389731689453125,0.0007696989341638982,0.00006572110578417778,-0.00029309000819921494
1783338293718703600,5.39970361328125,-0.0009219408966600895,0.00047691352665424347,0.00015378836542367935
1783338293728676600,5.409676513671875,0.0007767220376990736,-0.0014398912899196148,-0.0004874495789408684
1783338293738649600,5.419649658203125,-0.000635019619949162,0.0005886382423341274,0.00046489667147397995
1783338293748621800,5.429621826171875,-0.0001112429890781641,-0.0020146407186985016,-0.00017894525080919266
1783338293758594600,5.439594482421875,-0.00021723669487982988,0.0012807545717805624,0.0003539533354341984
1783338293768566500,5.44956640625,-0.0009826149325817823,-0.0008298810571432114,0.0003743143752217293
1783338293778539800,5.459539794921875,-0.001450798474252224,0.00041168462485074997,0.00010054162703454494
1783338293788512800,5.4695126953125,-0.0005465550348162651,0.00006927270442247391,0.0005211152601987123
1783338293798484500,5.479484375,-0.0001436186721548438,0.0018274914473295212,0.00018795393407344818
1783338293808457700,5.489457763671875,-0.0006248692516237497,-0.0005360497161746025,-0.00007212068885564804
1783338293818429700,5.4994296875,-0.0009841297287493944,0.00022694608196616173,0.0013358925934880972
1783338293828402400,5.50940234375,-0.00212371489033103,-0.0003432082012295723,0.0003288558218628168
1783338293838375700,5.519375732421875,0.000734389410354197,-0.0005208407528698444,0.001843661884777248
1783338293848347600,5.52934765625,-0.00011376524344086647,0.0005391412414610386,-0.0004257273394614458
1783338293858320600,5.539320556640625,0.00043644383549690247,0.000028879381716251373,0.00005790265277028084
1783338293868293600,5.549293701171875,-0.0013610703172162175,-0.0014262949116528034,-0.001077461987733841
1783338293878265600,5.559265625,0.0008450924069620669,-0.0013203010894358158,0.000248792115598917
1783338293888238600,5.569238525390625,-0.0014443225227296352,-0.0012822761200368404,0.0011792881414294243
1783338293898210600,5.57921044921875,-0.0009662851225584745,-0.000039911363273859024,-0.0001269923523068428
1783338293908183600,5.58918359375,0.00008299748878926039,-0.0006237244233489037,-0.002331195631995797
1783338293918156500,5.599156494140625,-0.0011894609779119492,-0.0010929731652140617,0.0008917618542909622
1783338293928128500,5.60912841796875,-0.0011657524155452847,0.00023339688777923584,-0.00013596401549875736
1783338293938101500,5.6191015625,0.0008758268668316305,-0.0011114994995296001,0.0004973355680704117
1783338293948074500,5.629074462890625,-0.0006115298019722104,0.00022996636107563972,0.001294342102482915
1783338293958046700,5.639046630859375,-0.0003859599819406867,-0.00004700245335698128,0.0023822432849556208
1783338293968019500,5.64901953125,-0.0009718970395624638,0.0008165484759956598,0.0007189682219177485
1783338293977991700,5.65899169921875,0.0010824655182659626,-0.0004521813243627548,-0.0002890382893383503
1783338293987964700,5.668964599609375,-0.0015248805284500122,0.0003082738257944584,0.0013485399540513754
1783338293997937700,5.678937744140625,-0.0003099464811384678,-0.0005002617835998535,0.00032641878351569176
1783338294007909600,5.68890966796875,-0.0008060364052653313,-0.00000622868537902832,-0.0006173106376081705
1783338294017882600,5.698882568359375,-0.0007961827795952559,0.0008494448848068714,-0.0000023869797587394714
1783338294027854600,5.7088544921875,0.0015716658672317863,0.0008970869239419699,-0.001593663590028882
1783338294037827600,5.71882763671875,-0.0000011969823390245438,0.0007804406341165304,0.0004196863155812025
1783338294047800600,5.728800537109375,0.00036408728919923306,-0.00023842277005314827,-0.0015000777784734964
1783338294057772500,5.7387724609375,-0.0007176887011155486,0.0021823907736688852,-0.0017456214409321547
1783338294067745800,5.748745849609375,-0.00128257111646235,-0.00001936778426170349,-0.00001334841363132
1783338294077718500,5.758718505859375,0.0012471656082198024,0.001773738767951727,0.00039145187474787235
1783338294087690500,5.7686904296875,0.00024978932924568653,-0.001020214520394802,0.0012607686221599579
1783338294097664000,5.7786640625,-0.0007156066130846739,0.0004144306294620037,-0.0005139620043337345
1783338294107636000,5.788635986328125,-0.001337774796411395,-0.0018460196442902088,-0.000319706741720438
1783338294117609000,5.79860888671875,-0.00011218816507607698,-0.0006702342070639133,-0.00043342355638742447
1783338294127582000,5.80858203125,0.00018932647071778774,-0.0014616874977946281,-0.002167775994166732
1783338294137554000,5.818553955078125,-0.0009893885580822825,0.001120779663324356,0.00043146940879523754
1783338294147527000,5.82852685546875,-0.0006153332069516182,-0.0007416028529405594,0.0013768926728516817
1783338294157499100,5.8384990234375,-0.0009239937644451857,-0.0002933931536972523,-0.0012641639914363623
1783338294167471900,5.848471923828125,-0.0005796812474727631,0.0008036347571760416,-0.0005715452134609222
1783338294177444900,5.85844482421875,-0.0004715567920356989,0.0003213365562260151,0.0006804068107157946
1783338294187417000,5.8684169921875,-0.00020113307982683182,0.0008658342994749546,-0.0007759432774037123
1783338294197390000,5.87839013671875,-0.0003209752030670643,0.0008706280495971441,0.0015673718880861998
1783338294207362800,5.88836279296875,-0.0007660517003387213,0.0001884549856185913,-0.0009644690435379744
1783338294217335000,5.8983349609375,-0.0002880140673369169,0.00020203692838549614,0.0003660463262349367
1783338294227308000,5.90830810546875,-0.0008499911054968834,0.0005297660827636719,0.0006587000098079443
1783338294237280000,5.918280029296875,-0.0006449276115745306,0.000187017023563385,-0.0009594368748366833
1783338294247253000,5.9282529296875,-0.00046651996672153473,0.0003804047591984272,-0.0007769304793328047
1783338294257226000,5.93822607421875,-0.0005932864733040333,0.00005949381738901138,0.001054791733622551
1783338294267198200,5.9481982421875,-0.0007291282527148724,0.000233581755310297,-0.00010242895223200321
1783338294277171000,5.9581708984375,-0.0016585714183747768,0.0006122831255197525,-0.0005082946736365557
1783338294287143000,5.968142822265625,-0.00029097357764840126,-0.0011903983540832996,-0.0003897210117429495
1783338294297116200,5.9781162109375,-0.0006664791144430637,0.0013225602451711893,-0.000513558043166995
1783338294307089200,5.988089111328125,-0.0005521280691027641,-0.0006096293218433857,0.00003311270847916603
1783338294317060900,5.998060791015625,-0.002018198138102889,0.0009256829507648945,-0.0004414627328515053
1783338294327034000,6.0080341796875,-0.0018865404417738318,-0.0007660146802663803,0.0004993497859686613
1783338294337007000,6.018007080078125,-0.0011208817595615983,-0.00012392643839120865,-0.0008889560122042894
1783338294346978800,6.027978759765625,0.0011412022868171334,0.0013208379969000816,0.00022866902872920036
1783338294356952000,6.0379521484375,-0.0007203472778201103,0.000201511662453413,0.00041162827983498573
1783338294366924000,6.047924072265625,-0.0008120699785649776,-0.0002263910137116909,0.0013945645187050104
1783338294376896800,6.057896728515625,0.00008834467735141516,-0.000754229724407196,0.0005897572264075279
1783338294386870000,6.0678701171875,-0.0005683817435055971,-0.0012721316888928413,0.000343959778547287
1783338294396842000,6.077842041015625,0.00014081806875765324,-0.0007802462205290794,0.000472057843580842
1783338294406815000,6.08781494140625,-0.0014855300541967154,0.00018722424283623695,0.0008969835471361876
1783338294416787000,6.097786865234375,-0.00023331178817898035,-0.000962462741881609,-0.00047241407446563244
1783338294426760000,6.107760009765625,-0.0006599043263122439,-0.0019024349749088287,0.000723920064046979
1783338294436733000,6.11773291015625,0.00013984297402203083,-0.0000651204027235508,0.000043482519686222076
1783338294446705000,6.127704833984375,0.00012500211596488953,0.000043616630136966705,-0.0002550976350903511
1783338294456678000,6.137677978515625,0.0016240954864770174,0.00021112943068146706,-0.0007022423669695854
1783338294466651000,6.14765087890625,0.000408339430578053,-0.0006900215521454811,-0.00018274178728461266
1783338294476623000,6.157623046875,-0.00013281498104333878,-0.000786428339779377,0.0009152796119451523
1783338294486595800,6.167595947265625,-0.0012587757082656026,-0.00006220908835530281,-0.00016198796220123768
1783338294496568000,6.177568115234375,0.000056026969105005264,-0.0008406513370573521,-0.0005460155662149191
1783338294506541000,6.187541015625,-0.0008176810806617141,-0.00023703882470726967,-0.0020051065366715193
1783338294516514000,6.19751416015625,-0.00013271602801978588,-0.0014218795113265514,0.00022236164659261703
1783338294526486000,6.207486083984375,-0.0007263822481036186,-0.00039882445707917213,-0.0002419541124254465
1783338294536459000,6.217458984375,-0.0005143948365002871,0.0008099845144897699,0.0018203979125246406
1783338294546431000,6.227430908203125,-0.00024734099861234426,0.0011057155206799507,-0.0009807480964809656
1783338294556404000,6.237404052734375,-0.00004600605461746454,-0.0014762193895876408,-0.0001964473631232977
1783338294566377000,6.247376953125,0.0001708929194137454,-0.0007853875868022442,0.0009333975613117218
1783338294576349000,6.257348876953125,0.0006550556281581521,0.000026343856006860733,-0.00012148055247962475
1783338294586322200,6.267322265625,0.0005854723276570439,-0.00018274132162332535,-0.0013869989197701216
1783338294596295000,6.277294921875,0.0001772097311913967,0.0001640021800994873,0.00045271264389157295
1783338294606267000,6.287266845703125,-0.0004189999308437109,-0.00021597044542431831,-0.00010090810246765614
1783338294616240000,6.297240234375,0.0012811621418222785,-0.0004141097888350487,-0.0005576401017606258
1783338294626211800,6.3072119140625,-0.0015610248083248734,0.0010660046245902777,0.0005201173480600119
1783338294636184800,6.317184814453125,0.0009964086348190904,-0.0003555906005203724,0.000372045673429966
1783338294646158000,6.327157958984375,0.0013643910642713308,0.0009707584977149963,0.0003450226504355669
1783338294656130000,6.337130126953125,0.0012461466249078512,-0.0007837321609258652,-0.0016374343540519476
1783338294666102800,6.347102783203125,-0.00044955790508538485,-0.0006450735963881016,-0.000012959353625774384
1783338294676075000,6.357074951171875,-0.0008604837348684669,-0.000007246620953083038,0.0007774666883051395
1783338294686048000,6.367048095703125,-0.00045341928489506245,-0.0003479262813925743,0.00023659178987145424
1783338294696021000,6.37702099609375,0.0008661769097670913,-0.00034819263964891434,0.0003234108444303274
1783338294705993000,6.386992919921875,-0.0003923390759155154,-0.00009386474266648293,0.00037750881165266037
1783338294715966000,6.396966064453125,-0.0005721024936065078,-0.000331684947013855,-0.0005780335050076246
1783338294725938200,6.406938232421875,-0.0009886217303574085,0.00009725196287035942,-0.0000042335595935583115
1783338294735911000,6.416910888671875,-0.0008924815338104963,-0.00038930773735046387,-0.0001714802347123623
1783338294745884000,6.4268837890625,0.0009533146512694657,-0.0005479580722749233,0.0008343241643160582
1783338294755856100,6.436856201171875,-0.0008054368663579226,0.00009146705269813538,-0.00021096644923090935
1783338294765829000,6.4468291015625,-0.0005047748563811183,0.000405644066631794,0.00045606354251503944
1783338294775801900,6.4568017578125,0.001251579960808158,-0.000689181499183178,-0.0004187850281596184
1783338294785774000,6.466774169921875,0.000450512976385653,-0.0013507809489965439,0.00026664393953979015
1783338294795747000,6.4767470703125,-0.00027652992866933346,0.0005091708153486252,-0.0007133991457521915
1783338294805718800,6.48671875,0.00224395957775414,0.000029863789677619934,-0.0016257301904261112
1783338294815692000,6.496692138671875,0.0000058390432968735695,-0.0004630871117115021,-0.0005868310108780861
1783338294825665000,6.5066650390625,-0.0007650695042684674,-0.0012851189821958542,-0.00002145976759493351
1783338294835637000,6.516636962890625,0.0010765064507722855,0.00028508109971880913,0.0004211575724184513
1783338294845610000,6.52660986328125,-0.0009422851726412773,0.000012904871255159378,-0.001452446449548006
1783338294855582000,6.53658203125,0.0015440419083461165,0.0004805559292435646,-0.0001949018333107233
1783338294865555000,6.546554931640625,-0.00023199187126010656,0.0007021725177764893,0.0005982068832963705
1783338294875528000,6.55652783203125,0.00021488650236278772,0.00009683612734079361,-0.0009717266075313091
1783338294885500000,6.5665,0.0008169848006218672,-0.0009471322409808636,-0.0004758879076689482
1783338294895473000,6.576472900390625,0.0014457571087405086,0.0007825910579413176,0.0004226625896990299
1783338294905446100,6.586446044921875,0.0007968198042362928,-0.000031993724405765533,0.001596600515767932
1783338294915417900,6.59641796875,0.00040932989213615656,-0.0019143158569931984,0.000044776592403650284
1783338294925390800,6.606390869140625,-0.0002455193316563964,0.0006634145975112915,0.00032174563966691494
1783338294935363000,6.616363037109375,-0.00010250753257423639,-0.00035950541496276855,0.00011668214574456215
1783338294945335800,6.626335693359375,0.000010433141142129898,-0.0011380268260836601,-0.0008138858247548342
1783338294955308800,6.636308837890625,0.000510308425873518,-0.00016251066699624062,-0.00016300915740430355
1783338294965281000,6.646281005859375,0.00048604689072817564,0.00033857766538858414,-0.0008424695115536451
1783338294975254000,6.65625390625,0.0004000267945230007,-0.00012481259182095528,0.0002574159298092127
1783338294985226000,6.66622607421875,0.0004857018357142806,0.0010410023387521505,0.0016529103741049767
1783338294995199000,6.676198974609375,-0.0002831527963280678,0.0005456544458866119,0.0015844672452658415
1783338295005172000,6.686171875,-0.000392416724935174,-0.00019096443429589272,-0.0010202161502093077
1783338295015144000,6.69614404296875,0.000651275971904397,-0.0012173466384410858,0.00009325146675109863
1783338295025117000,6.706116943359375,-0.0005473045166581869,0.00024182023480534554,0.0014341119676828384
1783338295035089000,6.7160888671875,-0.0012509115040302277,0.0008106713648885489,0.00008468818850815296
1783338295045062100,6.726062255859375,-0.0002560907742008567,-0.0017802761867642403,0.0004959180951118469
1783338295055035000,6.736034912109375,-0.0004275982500985265,-0.0001626722514629364,-0.0003680111840367317
1783338295065006800,6.7460068359375,-0.0014458266086876392,0.0016642827540636063,0.002086276886984706
1783338295074980000,6.75597998046875,0.00042291346471756697,-0.0005938117392361164,-0.0003249493893235922
1783338295084953000,6.765953125,0.0007277505937963724,0.0002478952519595623,-0.00023927399888634682
1783338295094924500,6.775924560546875,0.00012694147881120443,0.0007501672953367233,-0.0008398164063692093
1783338295104897500,6.7858974609375,-0.0010807851795107126,-0.0007524336688220501,-0.00009125657379627228
1783338295114869200,6.795869140625,-0.00023230211809277534,0.00016262847930192947,0.0002783900126814842
1783338295124842500,6.805842529296875,0.00024422258138656616,0.00003822706639766693,0.0006207958795130253
1783338295134815500,6.8158154296875,0.0003789785550907254,-0.0008270340040326118,-0.0006340858526527882
1783338295144787500,6.825787353515625,0.000043854815885424614,0.0010740258730947971,0.0004487705882638693
1783338295154760400,6.835760498046875,-0.0014208838110789657,0.0005813408643007278,0.002781699877232313
1783338295164732400,6.845732421875,-0.0018073903629556298,-0.0008979430422186852,-0.0011449581943452358
1783338295174705400,6.855705322265625,0.0006499083247035742,-0.0009970124810934067,-0.00004533911123871803
1783338295184678700,6.8656787109375,-0.0011899434030056,-0.001330515369772911,-0.0010403930209577084
1783338295194650400,6.875650390625,-0.0007699630223214626,0.000551274511963129,0.00013992004096508026
1783338295204623400,6.885623291015625,0.0006658330094069242,-0.0005854726769030094,-0.0007451947312802076
1783338295214596600,6.8955966796875,-0.00014696375001221895,-0.0018581971526145935,-0.00020963302813470364
1783338295224568300,6.905568359375,-0.0009967464720830321,0.000017764978110790253,0.0007878111209720373
1783338295234541300,6.915541259765625,0.00018622959032654762,-0.00005786912515759468,0.0003180294297635555
1783338295244513500,6.925513427734375,0.0009383233264088631,-0.0007605124264955521,0.0005357509944587946
1783338295254486500,6.935486572265625,0.0001649413025006652,0.00010048737749457359,-0.00020673847757279873
1783338295264459300,6.945459228515625,-0.001337975263595581,0.0009616692550480366,0.0014589161146432161
1783338295274431500,6.955431396484375,0.001119056949391961,-0.00048655783757567406,-0.0013110374566167593
1783338295284404500,6.965404541015625,-0.0007423992501571774,-0.00000519677996635437,-0.001077915308997035
1783338295294376400,6.97537646484375,-0.0017714448040351272,0.0004403502680361271,-0.000353535870090127
1783338295304349400,6.985349365234375,0.00021532783284783363,0.000933049013838172,0.0008718455210328102
1783338295314322400,6.995322509765625,-0.0012845644960179925,0.0013610189780592918,-0.00015027564950287342
1783338295324294700,7.005294677734375,0.00015385285951197147,-0.0002053072676062584,-0.000844922848045826
1783338295334267400,7.015267333984375,-0.0006248553982004523,0.00030548684298992157,-0.0018300265073776245
1783338295344240400,7.025240478515625,-0.00015147088561207056,-0.0006499332375824451,-0.0007160415407270193
1783338295354212600,7.035212646484375,0.00105201150290668,0.00036952458322048187,0.0009859849233180285
1783338295364185600,7.045185546875,-0.0007690137717872858,0.0013073959853500128,0.0001534237526357174
1783338295374157300,7.0551572265625,-0.000694977818056941,-0.00012804800644516945,0.001086595468223095
1783338295384130600,7.065130615234375,-0.001184897031635046,-0.0002715941518545151,0.00010642432607710361
1783338295394103600,7.075103515625,0.0009293866460211575,0.0013145843986421824,0.0008547725155949593
1783338295404075300,7.0850751953125,0.0005267128581181169,-0.0004115165211260319,0.0001996280625462532
1783338295414048500,7.095048583984375,-0.0007750401273369789,-0.0009287022985517979,-0.0006533826235681772
1783338295424020500,7.1050205078125,0.0007636891677975655,0.0005348511040210724,0.00040620891377329826
1783338295433993500,7.114993408203125,0.0005405163392424583,0.0004139435477554798,-0.0006739692762494087
1783338295443966500,7.124966552734375,-0.00055041688028723,0.00021455157548189163,0.0008268989622592926
1783338295453938400,7.1349384765625,-0.0009008886991068721,0.00048566143959760666,-0.0007100114598870277
1783338295463911400,7.144911376953125,-0.000020729959942400455,0.0006294180639088154,-0.0003699308726936579
1783338295473884700,7.154884765625,0.0012107157381251454,-0.0025445371866226196,-0.0005643416661769152
1783338295483856400,7.1648564453125,-0.0003045651828870177,-0.0010199346579611301,0.0012550996616482735
1783338295493829400,7.174829345703125,-0.001617770059965551,0.002467474900186062,-0.001125766197219491
1783338295503801600,7.184801513671875,-0.0011054060887545347,-0.0012960610911250114,0.0004428122192621231
1783338295513774300,7.1947744140625,-0.00013654818758368492,0.00002167094498872757,0.0005141850560903549
1783338295523747300,7.204747314453125,-0.0010819846065714955,0.000730050727725029,-0.000468631274998188
1783338295533719600,7.214719482421875,-0.0003426909679546952,-0.0010814317502081394,0.001848585088737309
1783338295543692500,7.224692626953125,-0.0005464674904942513,-0.0006125099025666714,-0.0012510099913924932
1783338295553664500,7.23466455078125,-0.0006772286724299192,-0.0005224947817623615,-0.00010585063137114048
1783338295563637500,7.244637451171875,-0.0009326071012765169,0.0014285712968558073,0.000002559274435043335
1783338295573610500,7.254610595703125,0.0006493105320259929,0.0006882124580442905,-0.0006192887667566538
1783338295583582500,7.26458251953125,-0.0009900815784931183,0.0002891458570957184,0.000844557536765933
1783338295593555500,7.274555419921875,-0.000011369818821549416,0.0004084552638232708,-0.0007368274964392185
1783338295603527400,7.28452734375,0.0002776685869321227,-0.0008605425246059895,-0.0008270374964922667
1783338295613500400,7.29450048828125,-0.00022140773944556713,0.00030139461159706116,0.0004914938472211361
1783338295623473400,7.304473388671875,-0.0009466420160606503,0.00011956458911299706,0.001144045265391469
1783338295633445400,7.3144453125,-0.0010747400810942054,-0.0015901848673820496,0.00009955349378287792
1783338295643418600,7.324418701171875,0.00002334662713110447,0.00026123644784092903,0.00023128697648644447
1783338295653391400,7.334391357421875,-0.001819827128201723,0.0011014638002961874,0.0008014696650207043
1783338295663363600,7.344363525390625,-0.00026746978983283043,0.000019331462681293488,0.0007794764824211597
1783338295673336600,7.354336669921875,-0.000765480799600482,-0.0006781504489481449,-0.0006216126494109631
1783338295683308300,7.364308349609375,-0.00020864559337496758,-0.00008024973794817924,0.00037989020347595215
1783338295693281500,7.374281494140625,0.0007889745756983757,0.0011738326866179705,0.0003119795583188534
1783338295703254500,7.384254638671875,-0.00011856830678880215,0.0013518305495381355,-0.000437016598880291
1783338295713226500,7.3942265625,-0.0008655849378556013,-0.0008498048409819603,-0.0002862820401787758
1783338295723199500,7.404199462890625,-0.0007876241579651833,0.00000796513631939888,-0.002074002753943205
1783338295733171500,7.41417138671875,-0.0004041288048028946,0.0014921447727829218,-0.00035892706364393234
1783338295743144400,7.42414453125,-0.00017600401770323515,0.0004587792791426182,0.001137987244874239
1783338295753117400,7.434117431640625,-0.000607169815339148,-0.00011140340939164162,0.0009150805417448282
1783338295763089400,7.44408935546875,0.00045803049579262733,0.0005719251930713654,0.000510211568325758
1783338295773062400,7.4540625,0.000210090191103518,0.0014385178219527006,0.0008604172617197037
1783338295783035400,7.464035400390625,-0.0007844909559935331,-0.000833011232316494,-0.0017728949896991253
1783338295793007400,7.47400732421875,0.0014373844023793936,0.0013720861170440912,0.0012487275525927544
1783338295802980400,7.48398046875,-0.0008271998958662152,-0.0010852469131350517,-0.00004794658161699772
1783338295812952600,7.49395263671875,-0.0003049540100619197,-0.0010705995373427868,0.00006284099072217941
1783338295822925600,7.503925537109375,-0.0006256187334656715,-0.0001768232323229313,0.00023534265346825123
1783338295832898300,7.513898193359375,0.0005706732627004385,0.0009741950780153275,0.00007741735316812992
1783338295842870500,7.52387060546875,0.0012970020761713386,0.000847057206556201,-0.0002803686074912548
1783338295852843500,7.533843505859375,-0.000763752032071352,-0.0009106290526688099,-0.0002018054947257042
1783338295862815500,7.5438154296875,0.00020164437592029572,0.0013981852680444717,0.0006367594469338655
1783338295872788500,7.55378857421875,-0.00045029737520962954,0.00027619535103440285,0.0003315613139420748
1783338295882761500,7.563761474609375,0.0002084594452753663,-0.00011499552056193352,0.0003148892428725958
1783338295892733700,7.573733642578125,0.0020119519904255867,-0.0001789117231965065,0.0006144947838038206
1783338295902706400,7.58370654296875,-0.0009115514112636447,0.000041480641812086105,-0.00013735517859458923
1783338295912678400,7.593678466796875,-0.00010993995238095522,-0.0006677191704511642,-0.00024361512623727322
1783338295922651600,7.603651611328125,-0.00029380060732364655,-0.0002277563326060772,0.001406427938491106
1783338295932624600,7.613624755859375,-0.0010698458645492792,-0.0001606447622179985,0.0005994902458041906
1783338295942596400,7.623596435546875,0.0002270496916025877,0.001506709959357977,0.0012413954827934504
1783338295952569600,7.633569580078125,-0.000992411863990128,-0.00012500863522291183,-0.0008936605881899595
1783338295962542600,7.64354248046875,0.0014596092514693737,-0.00020985212177038193,0.0002508645411580801
1783338295972514300,7.653514404296875,-0.00035533495247364044,0.00014727795496582985,-0.0009582103230059147
1783338295982487600,7.663487548828125,-0.0009332457557320595,-0.0008913083001971245,-0.0006892415694892406
1783338295992459500,7.67345947265625,0.0010191176552325487,-0.0014907857403159142,0.0014538043178617954
1783338296002432500,7.6834326171875,0.0012953764526173472,-0.0005915029905736446,0.00008828984573483467
1783338296012405500,7.693405517578125,-0.000514507875777781,0.0012005381286144257,-0.00029733567498624325
1783338296022377500,7.70337744140625,0.00042173254769295454,0.00041690142825245857,0.0008488211315125227
1783338296032350500,7.7133505859375,-0.00045311590656638145,-0.0005215965211391449,0.000474114203825593
1783338296042322400,7.723322509765625,0.001109529985114932,-0.0003334116190671921,0.0011992622166872025
1783338296052295400,7.73329541015625,0.0004064554814249277,-0.0009280955418944359,0.0009654366876929998
1783338296062268400,7.743268310546875,-0.0007243807194754481,0.0012894689571112394,-0.0005813359748572111
1783338296072240600,7.75324072265625,-0.0015582164051011205,0.00046948157250881195,-0.0007038416806608438
1783338296082213400,7.76321337890625,0.0002095983363687992,-0.000830184668302536,0.0013321561273187399
1783338296092185600,7.773185546875,0.0010647394228726625,-0.00043071014806628227,0.001089009689167142
1783338296102158600,7.78315869140625,-0.00035187858156859875,-0.0005293828435242176,-0.0012401612475514412
1783338296112131600,7.793131591796875,-0.00015720166265964508,-0.00011100014671683311,-0.00003348314203321934
1783338296122103800,7.803103759765625,0.0004921486834064126,-0.0007495707832276821,-0.00038618966937065125
1783338296132076800,7.813076904296875,0.000591484596952796,0.0014059918466955423,-0.0009145606309175491
1783338296142049500,7.823049560546875,0.0010995280463248491,-0.0007317629642784595,0.0004366501234471798
1783338296152021800,7.833021728515625,-0.0001974315382540226,-0.0006159157492220402,-0.00008559576235711575
1783338296161994800,7.842994873046875,0.00010743318125605583,0.0013118777424097061,-0.0012132520787417889
1783338296171966500,7.852966552734375,-0.0013482507783919573,-0.0003094547428190708,0.0004911711439490318
1783338296181939700,7.862939697265625,-0.00029774243012070656,0.0016423617489635944,-0.001264993567019701
1783338296191912700,7.87291259765625,0.00068549660500139,0.0010157199576497078,0.0011512923520058393
1783338296201884700,7.882884765625,0.000026832683943212032,0.0004483000375330448,0.0008376981131732464
1783338296211857700,7.892857666015625,-0.0006570671685039997,-0.0010420046746730804,-0.0012483561877161264
1783338296221829600,7.90282958984375,0.0006379062542691827,0.0003103851340711117,0.0009609546978026628
1783338296231802600,7.912802734375,-0.0009780998807400465,0.0006382199935615063,0.00032712239772081375
1783338296241775900,7.92277587890625,0.0005244618514552712,-0.0010489672422409058,-0.0013994977343827486
1783338296251747600,7.93274755859375,0.0009066254133358598,0.0000197594054043293,0.0006175802554935217
1783338296261720600,7.942720458984375,0.00009266391862183809,0.00023375032469630241,-0.00034388364292681217
1783338296271692800,7.95269287109375,-0.000006139511242508888,0.0009333628695458174,-0.000002466375008225441
1783338296281665500,7.96266552734375,0.0008143997984007001,0.00004092324525117874,-0.0005549201741814613
1783338296291638500,7.972638427734375,0.00007750315126031637,0.000554647296667099,0.00039556180126965046
1783338296301610800,7.98261083984375,0.0003377514658495784,-0.0019001001492142677,0.0011221261229366064
1783338296311583700,7.992583740234375,0.0007870267145335674,-0.0007533431053161621,-0.0014880378730595112
1783338296321556500,8.002556396484374,0.0008189324289560318,-0.001341128721833229,-0.000009026145562529564
1783338296331528700,8.01252880859375,0.00038856558967381716,0.0008831436280161142,-0.0002726791426539421
1783338296341501700,8.022501708984375,0.0014057348016649485,-0.00002919742837548256,0.00014983140863478184
1783338296351473700,8.0324736328125,0.0008275624131783843,-0.0012172339484095573,0.0009807376191020012
1783338296361446700,8.04244677734375,-0.0010048334952443838,-0.0008058706298470497,-0.0004173004999756813
1783338296371419600,8.052419677734376,0.00023540051188319921,-0.0012775161303579807,-0.0008284924551844597
1783338296381391600,8.0623916015625,0.0008700183825567365,-0.0011766734533011913,-0.0009532044641673565
1783338296391364600,8.072364501953125,-0.0002820650115609169,-0.000744176097214222,0.0007991555612534285
1783338296401336600,8.082336669921874,-0.00009249639697372913,0.0009247548878192902,0.001207033172249794
1783338296411309800,8.092309814453126,-0.00015614600852131844,-0.0007157521322369576,-0.0007261554710566998
1783338296421282600,8.102282470703125,0.00048541463911533356,0.0006472612731158733,-0.0005035086069256067
1783338296431254500,8.112254638671875,-0.0003425620961934328,0.0006286189891397953,-0.00028006965294480324
1783338296441227800,8.122227783203124,-0.00012768502347171307,-0.00033195409923791885,0.0009517043363302946
1783338296451200800,8.13220068359375,-0.000407050596550107,0.00022304849699139595,0.0002694025170058012
1783338296461172500,8.14217236328125,-0.000246766721829772,0.0005209296941757202,0.0005355156026780605
1783338296471145700,8.152145751953125,-0.0006497029680758715,-0.0007326202467083931,0.00008251192048192024
1783338296481117700,8.16211767578125,-0.001227591885253787,0.001338030444458127,-0.000497105298563838
1783338296491090400,8.17209033203125,0.0000619108323007822,0.0021114125847816467,0.000577213941141963
1783338296501063700,8.182063720703125,0.0000018728896975517273,0.0003601689822971821,-0.0002170470543205738
1783338296511035600,8.19203564453125,-0.0002607146743685007,0.00008905911818146706,-0.0004929506685584784
1783338296521008600,8.202008544921876,-0.00022431998513638973,0.0009768162854015827,-0.0007405087817460299
1783338296530980600,8.211980712890625,-0.000686112092807889,0.0005187527276575565,0.0008019942324608564
1783338296540953600,8.22195361328125,-0.00012996327131986618,-0.0002841241657733917,0.00008995598182082176
1783338296550926600,8.231926513671874,0.0009872327791526914,0.0006013768725097179,-0.0007870227564126253
1783338296560898600,8.241898681640626,0.00019098073244094849,0.00053829001262784,-0.00015745824202895164
1783338296570871600,8.25187158203125,0.0008005782729014754,-0.00016238773241639137,-0.000005658017471432686
1783338296580843800,8.26184375,0.0014544061850756407,0.0003931121900677681,0.0008493752684444189
1783338296590816800,8.271816650390624,-0.0004494877066463232,-0.0003286045975983143,0.0015274160541594028
1783338296600789500,8.28178955078125,0.00007898977492004633,-0.0011939010582864285,-0.0017136640381067991
1783338296610761700,8.29176171875,0.0003106847871094942,-0.001001354306936264,-0.0010452105198055506
1783338296620734700,8.301734619140625,0.00015386752784252167,0.00008635781705379486,0.002490996615961194
1783338296630707700,8.311707763671874,-0.0006155197042971849,-0.0020143436267971992,-0.00008481275290250778
1783338296640679700,8.3216796875,-0.0007462892681360245,0.000027102883905172348,-0.0003273189067840576
1783338296650652700,8.331652587890625,0.0014215237461030483,-0.0005513355135917664,0.0007901436183601618
1783338296660624600,8.341624755859375,-0.0009517131838947535,-0.001466152723878622,0.0002095852978527546
1783338296670597600,8.35159765625,-0.000527737895026803,0.0004947325214743614,-0.00006844871677458286
1783338296680570600,8.361570556640626,-0.0013400607276707888,0.0003426019102334976,-0.0007130142766982317
1783338296690542600,8.37154248046875,-0.0001807867083698511,0.0013572662137448788,-0.0007702724542468786
1783338296700515800,8.381515869140625,-0.00043532694689929485,-0.00021547870710492134,0.00017374358139932156
1783338296710487600,8.391487548828126,0.0012171644484624267,0.0012591134291142225,0.0000075623393058776855
1783338296720460500,8.40146044921875,-0.0005916999652981758,0.001261328812688589,0.0011467100121080875
1783338296730433800,8.411433837890625,-0.0006851768121123314,-0.00014322251081466675,-0.0003894013352692127
1783338296740405500,8.421405517578124,-0.00012482772581279278,-0.00008400483056902885,-0.0011508087627589703
1783338296750378500,8.43137841796875,-0.001030568964779377,0.0012204113882035017,0.000014590565115213394
1783338296760350700,8.441350830078125,-0.001037344103679061,0.0011051623150706291,-0.00041656987741589546
1783338296770323700,8.45132373046875,0.0006814601365476847,0.0009152789134532213,-0.000540673267096281
1783338296780296400,8.46129638671875,-0.00010770699009299278,0.00004012091085314751,-0.000408900436013937
1783338296790268700,8.4712685546875,0.0009333225898444653,0.0003091003745794296,-0.0008794809691607952
1783338296800241700,8.48124169921875,0.00007022696081548929,0.0001448020339012146,-0.0002435955684632063
1783338296810213600,8.491213623046875,-0.0001010142732411623,-0.000788902398198843,-0.00039060204289853573
1783338296820186600,8.5011865234375,0.0010302859591320157,0.00022752024233341217,-0.0004655555821955204
1783338296830159600,8.51115966796875,-0.0003697378560900688,-0.0011293599382042885,-0.00016248761676251888
1783338296840131600,8.521131591796875,-0.0011273296549916267,0.0012026347685605288,-0.0002807190176099539
1783338296850104600,8.5311044921875,0.0011355583555996418,0.0017275437712669373,0.00028147432021796703
1783338296860077600,8.54107763671875,-0.00034067919477820396,-0.0011475947685539722,0.0006625913083553314
1783338296870049800,8.5510498046875,-0.001280775060877204,-0.00029964419081807137,-0.0006178563926368952
1783338296880022500,8.5610224609375,-0.0015671893488615751,0.000877678394317627,0.001134412596002221
1783338296889994500,8.570994384765624,0.00026533182244747877,0.0002478407695889473,0.0005162931047379971
1783338296899967700,8.5809677734375,0.0006266480777412653,-0.0024877176620066166,-0.000019796891137957573
1783338296909940700,8.590940673828126,0.00023782660719007254,0.0004353676922619343,0.0001312042586505413
1783338296919912700,8.60091259765625,0.0011231538373976946,-0.000933751929551363,-0.0003396780230104923
1783338296929885700,8.6108857421875,-0.00027287518605589867,-0.0011619850993156433,-0.00014207162894308567
1783338296939857700,8.620857666015626,-0.0008618597639724612,-0.0007751025259494781,-0.0016593928448855877
1783338296949830700,8.63083056640625,0.00007637194357812405,0.00025021424517035484,0.0008628868963569403
1783338296959803600,8.6408037109375,0.0007155591156333685,0.00012478604912757874,-0.0003106868825852871
1783338296969775600,8.650775634765624,-0.0001611534971743822,-0.0001066429540514946,-0.00026035308837890625
1783338296979748600,8.66074853515625,0.00019836134742945433,0.000017105601727962494,0.0000026721972972154617
1783338296989720600,8.670720458984375,0.0001807844964787364,-0.0013482971116900444,0.0001792397815734148
1783338296999693600,8.680693603515625,-0.0006653539603576064,-0.0005800421349704266,-0.0007038423791527748
1783338297009666600,8.69066650390625,-0.0009431218495592475,0.0010189199820160866,-0.00014298059977591038
1783338297019638500,8.700638427734376,-0.0005672820843756199,-0.0003338879905641079,-0.000024078646674752235
1783338297029611500,8.710611572265625,0.0007826742948964238,-0.0018148720264434814,-0.0009157047607004642
1783338297039583700,8.720583740234375,0.0007033697329461575,-0.000561852939426899,0.0017940764082595706
1783338297049556700,8.730556640625,-0.0006745498394593596,-0.0003136461600661278,0.0006931256502866745
1783338297059529500,8.740529541015626,0.0010315305553376675,0.00007918477058410645,-0.0004590598400682211
1783338297069501700,8.750501708984375,-0.00020577420946210623,0.0005905115976929665,-0.0006390891503542662
1783338297079474700,8.760474609375,0.00071387505158782,-0.00007991259917616844,-0.0008999123238027096
1783338297089446700,8.77044677734375,0.0010997671633958817,-0.000206679105758667,0.00005962466821074486
1783338297099420200,8.780420166015626,-0.0010121393715962768,-0.00140800466760993,-0.0009048855863511562
1783338297109393200,8.79039306640625,-0.00035780074540525675,0.0003803083673119545,0.0009558650199323893
1783338297119365000,8.800365234375,0.0001355138374492526,0.00038738781586289406,-0.00020121224224567413
1783338297129338000,8.810338134765624,0.0001618791138753295,-0.0005684206262230873,-0.00028057442978024483
1783338297139311000,8.82031103515625,0.000269160489551723,0.0008995451498776674,-0.00023239757865667343
1783338297149283000,8.830282958984375,-0.0001513526076450944,0.0010888958349823952,-0.00038526300340890884
1783338297159256000,8.840256103515625,-0.00017056067008525133,0.0007179942913353443,0.0002624720800668001
1783338297169228000,8.85022802734375,-0.00031596922781318426,0.0013694034423679113,-0.0009711042512208223
1783338297179201000,8.860200927734375,-0.0003014683024957776,0.00038922159001231194,0.0006433709058910608
1783338297189174300,8.87017431640625,-0.0007470151176676154,0.0008206535130739212,0.00015361560508608818
1783338297199146000,8.88014599609375,0.0007527656853199005,0.0005357307381927967,-0.000971413915976882
1783338297209119000,8.890118896484376,-0.0017205120529979467,0.000261691864579916,0.0008278174791485071
1783338297219091200,8.90009130859375,0.0001310663064941764,0.000022782478481531143,-0.0012195443268865347
1783338297229064000,8.91006396484375,-0.0003887828206643462,-0.0015050731599330902,-0.0003910346422344446
1783338297239037000,8.920036865234374,-0.000294968718662858,-0.0010119783692061901,0.000015941215679049492
1783338297249009200,8.930009033203126,-0.0005815250333398581,0.0020463960245251656,0.000312617514282465
1783338297258982100,8.939982177734375,-0.00018571154214441776,-0.00004709325730800629,-0.000905581284314394
1783338297268954000,8.9499541015625,0.0015354894567281008,0.00009059207513928413,-0.000012090662494301796
1783338297278927000,8.959927001953124,-0.0010325276525691152,0.0010675915982574224,0.00015336950309574604
1783338297288900000,8.969900146484376,-0.0004982975078746676,0.00036371825262904167,-0.0012692911550402641
1783338297298872000,8.9798720703125,-0.00042054266668856144,-0.0011890595778822899,-0.002393225207924843
1783338297308845000,8.989844970703125,-0.00009164214134216309,-0.0006862543523311615,0.00020602019503712654
1783338297318817000,8.999817138671874,-0.000845465692691505,-0.00011238781735301018,-0.0009101526811718941
1783338297328790300,9.009790283203126,0.0005897117080166936,0.0016088129486888647,-0.0007365145720541477
1783338297338763000,9.019762939453125,0.0008238136069849133,0.0005330187268555164,0.0008937087841331959
1783338297348735000,9.02973486328125,0.00006028532516211271,0.000173225998878479,0.0008564244490116835
1783338297358708200,9.039708251953124,0.00012956757564097643,-0.00047902390360832214,-0.0015287308488041162
1783338297368680000,9.049679931640625,0.001719741034321487,0.00038650352507829666,-0.001151893986389041
1783338297378653000,9.05965283203125,0.0007493923185393214,0.0007091118022799492,0.001365648815408349
1783338297388626200,9.069626220703125,0.0007019879994913936,-0.0007202066481113434,0.0005360741633921862
1783338297398598100,9.07959814453125,0.0012734046904370189,-0.0004881140775978565,-0.00043858797289431095
1783338297408571000,9.08957080078125,-0.0006352828349918127,0.0005417303182184696,0.0017654441762715578
1783338297418543000,9.099543212890625,0.0004990530433133245,0.0015929779037833214,-0.00031871069222688675
1783338297428516000,9.10951611328125,-0.00016940035857260227,-0.0015695258043706417,-0.0010042083449661732
1783338297438489000,9.119489013671876,-0.0003987629897892475,-0.00004863692447543144,-0.00012209732085466385
1783338297448461000,9.1294609375,0.001304062083363533,-0.0005844649858772755,0.00022597773931920528
1783338297458434000,9.13943408203125,-0.0003891678061336279,0.0021202624775469303,-0.0000457612331956625
1783338297468407000,9.149406982421874,-0.0018057033885270357,-0.0001809750683605671,-0.0007847887463867664
1783338297478379000,9.15937890625,-0.0010609989985823631,0.0016582123935222626,-0.001300755888223648
1783338297488352000,9.16935205078125,0.001548366155475378,0.000058185309171676636,0.0005368255078792572
1783338297498324200,9.17932421875,0.0010685119777917862,0.0008225038181990385,0.0007433646824210882
1783338297508297200,9.189297119140624,0.0008615843253210187,0.0014528741594403982,0.00015640398487448692
1783338297518270000,9.19927001953125,-0.0008917250670492649,-0.0007999110966920853,0.0001846065279096365
1783338297528242200,9.2092421875,-0.0008067702874541283,-0.00025103380903601646,-0.0008982345461845398
1783338297538215200,9.219215087890625,0.000032332842238247395,-0.00013139750808477402,-0.0012751901522278786
1783338297548187100,9.229187255859374,0.00006748654413968325,0.00019697006791830063,-0.00029967445880174637
1783338297558160100,9.23916015625,0.00038307509385049343,0.000985210994258523,-0.0011298307217657566
1783338297568133000,9.249133056640625,-0.0005647439975291491,-0.001053172629326582,0.000022253021597862244
1783338297578105000,9.25910498046875,0.0015333272749558091,0.0004349402152001858,0.0022217456717044115
1783338297588078000,9.269078125,-0.001656607142649591,-0.0005775936879217625,-0.00026910891756415367
1783338297598050000,9.279050048828125,0.0011483067646622658,0.00042421789839863777,-0.0002716812305152416
1783338297608023000,9.28902294921875,0.0003432332305237651,-0.0005188076756894588,0.0006585610099136829
1783338297617996300,9.298996337890625,-0.0006358190439641476,0.0021970190573483706,0.0001760988961905241
1783338297627968000,9.308968017578126,0.00019109260756522417,-0.0006802603602409363,0.000002726912498474121
1783338297637941200,9.318941162109375,0.00017215299885720015,-0.0005018273368477821,0.00005152681842446327
1783338297647913200,9.328913330078125,-0.0019605064298957586,0.00036636320874094963,0.0007077297195792198
1783338297657886000,9.338885986328124,-0.0008505850564688444,-0.0011326535604894161,-0.0013114423491060734
1783338297667859200,9.348859130859376,-0.000858574640005827,-0.0005520842969417572,0.000155692920088768
1783338297677831200,9.3588310546875,0.0018300305819138885,0.0022600290831178427,0.0009706404525786638
1783338297687804000,9.368803955078125,0.00040710356552153826,-0.0004324270412325859,-0.00027358834631741047
1783338297697776000,9.378776123046874,0.00023141922429203987,-0.000261764507740736,-0.0009466332849115133
1783338297707749000,9.3887490234375,-0.0009190663695335388,0.0010189495515078306,-0.0001796430442482233
1783338297717722000,9.39872216796875,-0.0001595788635313511,0.0015742441173642874,0.00017879297956824303
1783338297727694000,9.408694091796875,-0.0005145783070474863,-0.001353368628770113,-0.0012153717689216137
1783338297737667000,9.4186669921875,0.0005548481130972505,0.0016669894102960825,-0.00027323910035192966
1783338297747639300,9.428639404296876,0.000565500813536346,-0.00007498450577259064,-0.00006844173185527325
1783338297757612000,9.438612060546875,-0.0006878150161355734,-0.00038422225043177605,-0.0005083007272332907
1783338297767585000,9.4485849609375,-0.0003165702801197767,-0.00024200929328799248,0.0003532320261001587
1783338297777557200,9.45855712890625,-0.0016037242021411657,0.0010290101636201143,-0.0013340860605239868
1783338297787530200,9.4685302734375,0.0008013766491785645,0.0002726726233959198,-0.00007547624409198761
1783338297797502000,9.478501953125,-0.0005638960283249617,-0.0018217130564153194,-0.00013795681297779083
1783338297807475200,9.48847509765625,0.0003391817444935441,-0.001370839774608612,0.0007592621259391308
1783338297817448200,9.4984482421875,0.00039357051718980074,-0.0016764258034527302,-0.00009892741218209267
1783338297827420000,9.508419921875,-0.0005478567909449339,0.0005651568062603474,-0.0008107905741780996
1783338297837393200,9.51839306640625,-0.0006238427013158798,0.00009212084114551544,-0.0010479346383363008
1783338297847365000,9.528365234375,-0.0013849742244929075,0.0008995912503451109,-0.0009472670499235392
1783338297857338000,9.538338134765626,-0.00010112044401466846,0.0011047320440411568,-0.0007560322992503643
1783338297867311000,9.54831103515625,-0.0008750350680202246,-0.0011267303489148617,-0.002775507513433695
1783338297877283000,9.558282958984375,-0.000587700167670846,-0.00030317995697259903,-0.00006462680175900459
1783338297887256000,9.568256103515624,-0.0009640047792345285,-0.0005287500098347664,0.00013111555017530918
1783338297897228000,9.57822802734375,-0.0005618124268949032,-0.0018134159035980701,-0.0006346111185848713
1783338297907201000,9.588200927734375,0.0015977448783814907,-0.001610749401152134,0.0005939051043242216
1783338297917174000,9.598174072265625,0.00034260714892297983,0.0002500959672033787,-0.0002494766376912594
1783338297927146200,9.608146240234374,0.0009476774139329791,0.0005907146260142326,0.0011295080184936523
1783338297937119000,9.618118896484376,0.0005481373518705368,0.0008547257166355848,-0.0012461771257221699
1783338297947091200,9.62809130859375,0.0015865038149058819,0.00019559310749173164,-0.00004562409594655037
1783338297957064200,9.638064208984375,0.00030538917053490877,0.000637788325548172,0.0003897501155734062
1783338297967037200,9.648037109375,-0.0009231269359588623,-0.0007361364550888538,0.00031225220300257206
1783338297977009200,9.658009033203125,0.0011042313417419791,0.0002579009160399437,0.00075936084613204
1783338297986982100,9.667982177734375,-0.0007029897533357143,0.0006251507438719273,0.001575087197124958
1783338297996954000,9.6779541015625,0.000060228630900382996,0.00046143634244799614,0.0018050228245556355
1783338298006927000,9.687927001953126,-0.0005855879280716181,-0.0003710677847266197,0.0003714433405548334
1783338298016900000,9.697900146484375,-0.0010073704179376364,-0.00013445410877466202,0.0007197880186140537
1783338298026872000,9.7078720703125,-0.0001807252410799265,0.0010557128116488457,0.0026532430201768875
1783338298036845300,9.71784521484375,0.00030737172346562147,-0.0009240638464689255,-0.00013352138921618462
1783338298046818000,9.727818115234374,0.00015637045726180077,0.0001569134183228016,-0.0000901117455214262
1783338298056790000,9.7377900390625,-0.00041936314664781094,0.000588463619351387,0.000619734637439251
1783338298066763300,9.74776318359375,-0.0008193699177354574,-0.0005279337055981159,-0.00021836208179593086
1783338298076735000,9.75773486328125,-0.0016647123266011477,-0.0011177826672792435,-0.0006828538607805967
1783338298086708000,9.7677080078125,0.0003995037404820323,0.00003296928480267525,-0.001193382078781724
1783338298096681200,9.77768115234375,0.0007784870686009526,0.000014229211956262589,0.0010568592697381973
1783338298106652400,9.78765234375,-0.00024310150183737278,-0.0010180119425058365,-0.0000329064205288887
1783338298116625400,9.79762548828125,-0.0009518242441117764,0.00022103870287537575,0.00138366362079978
1783338298126597400,9.807597412109375,0.0005877491785213351,-0.0018540965393185616,0.00028803921304643154
1783338298136570400,9.8175703125,-0.0012259709183126688,0.0009991093538701534,0.00160306878387928
1783338298146543600,9.827543701171875,-0.00043874047696590424,-0.0015974724665284157,-0.00042892294004559517
1783338298156515300,9.837515380859376,-0.0001266123726963997,-0.0008050552569329739,0.00042147934436798096
1783338298166488300,9.84748828125,0.00012984999921172857,0.0002351752482354641,-0.0002847909927368164
1783338298176460500,9.85746044921875,-0.0016480679623782635,0.00041815871372818947,-0.0002239774912595749
1783338298186433300,9.867433349609374,0.0005469092866405845,-0.00043751485645771027,-0.00012331013567745686
1783338298196405500,9.877405517578126,-0.00036883866414427757,-0.0007010176777839661,0.0007046919781714678
1783338298206378500,9.88737841796875,-0.0003616481553763151,0.001396221574395895,-0.000465234974399209
1783338298216351500,9.8973515625,-0.0002593677490949631,-0.0014467672444880009,0.0010457218158990145
1783338298226323500,9.907323486328124,0.0001944350078701973,-0.001188973430544138,-0.0012315469793975353
1783338298236296400,9.91729638671875,0.0008862543618306518,0.0008818840142339468,-0.00036065722815692425
1783338298246269400,9.92726953125,0.0009965092176571488,0.0008153049275279045,-0.000422176206484437
1783338298256241400,9.937241455078125,0.0011023319093510509,0.0005642082542181015,-0.000577353173866868
1783338298266214400,9.94721435546875,-0.0013672173954546452,0.000711481086909771,-0.0001983854454010725
1783338298276186400,9.957186279296875,0.0005227276124060154,-0.00022174883633852005,-0.00017480202950537205
1783338298286159400,9.967159423828125,0.00034616002812981606,0.0008469775784760714,0.0004145554266870022
1783338298296132400,9.97713232421875,-0.0006288534495979548,-0.0005857381038367748,-0.0002820221707224846
1783338298306104300,9.987104248046874,0.0011397518683224916,0.00032825907692313194,0.0004364985506981611
1783338298316077600,9.99707763671875,-0.0004439796321094036,0.000029992777854204178,0.001061455113813281
1783338298326049300,10.00704931640625,0.000043911393731832504,0.00046462053433060646,0.0012934163678437471
1783338298336022300,10.017022216796875,-0.00011997646652162075,0.00045246677473187447,0.0011968107428401709
1783338298345994500,10.026994384765626,0.00044647802133113146,-0.0004996135830879211,0.00018294528126716614
1783338298355967200,10.03696728515625,-0.00006336322985589504,0.00014567002654075623,0.0004199438262730837
1783338298365940200,10.046940185546875,0.0013776731211692095,0.0014663317706435919,0.00026548048481345177
1783338298375912400,10.056912353515624,-0.0018240492790937424,0.0003455537371337414,0.0001293590757995844
1783338298385885400,10.066885498046876,0.0008473676862195134,-0.0012653926387429237,0.0017506916774436831
1783338298395858200,10.076858154296875,0.00012025714386254549,-0.0015941057354211807,-0.0008606673218309879
1783338298405830400,10.086830322265625,-0.0003982603084295988,0.0009827688336372375,0.000992093700915575
1783338298415803400,10.096803466796874,0.000925205647945404,0.001238662051036954,0.00040924688801169395
1783338298425775400,10.106775390625,0.0007622202392667532,-0.0004369989037513733,-0.0013124868273735046
1783338298435748400,10.116748291015625,0.00044973089825361967,0.0003415718674659729,-0.00044623645953834057
1783338298445721300,10.126721435546875,0.0008662492036819458,-0.0014893515035510063,0.000499185873195529
1783338298455693600,10.136693603515624,0.000999188283458352,0.00023796921595931053,0.0001359879970550537
1783338298465666300,10.146666259765626,0.0019174462649971247,-0.0010568597353994846,-0.000497844535857439
1783338298475638300,10.15663818359375,-0.000865984009578824,-0.0022058100439608097,-0.0008359893690794706
1783338298485611500,10.166611572265625,-0.0012843667063862085,0.001723950495943427,-0.00029243784956634045
1783338298495583200,10.176583251953126,0.0003830385394394398,0.0001719077117741108,-0.00043248687870800495
1783338298505556200,10.18655615234375,0.0006221904186531901,-0.00024487683549523354,-0.001181900268420577
1783338298515529500,10.196529541015625,0.00048171309754252434,0.0012212414294481277,-0.0005646934732794762
1783338298525501400,10.20650146484375,0.00111714331433177,0.00012188870459794998,-0.00044538406655192375
1783338298535474200,10.21647412109375,-0.0003750682808458805,0.000593842938542366,-0.00015469244681298733
1783338298545447400,10.226447509765626,-0.0007657541427761316,0.000858028419315815,0.000565958907827735
1783338298555419400,10.23641943359375,-0.0005956434179097414,0.00016494235023856163,-0.00012641609646379948
1783338298565392400,10.246392333984375,0.0006166276289150119,-0.00035916781052947044,0.00015960726886987686
1783338298575364400,10.2563642578125,-0.0001391980331391096,0.0021650565322488546,-0.000007393071427941322
1783338298585337300,10.26633740234375,-0.001490219496190548,0.000314958393573761,0.00007196911610662937
1783338298595309600,10.2763095703125,0.0007090173894539475,-0.0007523638196289539,0.00030423467978835106
1783338298605282300,10.2862822265625,-0.0009631814900785685,0.00042475340887904167,-0.0006912548560649157
1783338298615255300,10.29625537109375,-0.00021296413615345955,0.0006247577257454395,0.00016873283311724663
1783338298625227500,10.3062275390625,0.00036147970240563154,-0.0003896402195096016,-0.0012768309097737074
1783338298635200500,10.316200439453125,0.00016118353232741356,0.00012975512072443962,-0.0008202181197702885
1783338298645172500,10.32617236328125,0.000445076497271657,0.00029726792126893997,0.0000474399421364069
1783338298655145500,10.3361455078125,0.0014890292659401894,-0.000471524428576231,0.0005273111164569855
1783338298665118500,10.346118408203125,-0.000510738231241703,0.0010613908525556326,0.00010626553557813168
1783338298675090400,10.35609033203125,0.0003996471641585231,0.00047414517030119896,-0.0002785709220916033
1783338298685063400,10.3660634765625,0.0001932521117851138,0.0006286087445914745,0.001144888810813427
1783338298695035400,10.376035400390625,-0.0013602590188384056,0.0012363956775516272,-0.0000345038715749979
1783338298705008400,10.38600830078125,0.0010994365438818932,0.00023557990789413452,0.00027282489463686943
1783338298714981400,10.3959814453125,0.002053555566817522,-0.0007417234592139721,-0.0002454165369272232
1783338298724953300,10.405953369140626,-0.00012997002340853214,-0.002372110728174448,-0.0005556747782975435
1783338298734926300,10.41592626953125,0.0016481736674904823,0.001749441958963871,0.00018659932538866997
1783338298744898300,10.425898193359375,-0.00006636953912675381,0.0005254531279206276,-0.0007308595813810825
1783338298754871300,10.435871337890624,-0.0007417527958750725,-0.0017341887578368187,0.0005850715097039938
1783338298764844500,10.445844482421874,0.0018092893296852708,0.0005547981709241867,-0.0008833955507725477
1783338298774816300,10.455816162109375,0.0011145917233079672,0.0010120365768671036,-0.0006819108966737986
1783338298784789200,10.465789306640625,0.00003814208321273327,-0.000060418155044317245,-0.0009293186012655497
1783338298794761500,10.475761474609374,0.0002499335678294301,-0.0006791278719902039,0.0002029759343713522
1783338298804734500,10.485734375,0.0000414079986512661,0.001182155217975378,0.0001393263228237629
1783338298814707200,10.495707275390625,0.0003250458976253867,0.00026425113901495934,0.0014561265707015991
1783338298824679400,10.505679443359375,0.0009418339468538761,0.0014333785511553288,-0.000480257673189044
1783338298834652400,10.51565234375,-0.0007377879228442907,-0.0007539698854088783,-0.0008356829639524221
1783338298844624400,10.525624267578126,-0.0000022228341549634933,0.0012268894352018833,-0.00018187705427408218
1783338298854597400,10.535597412109375,0.0005530983908101916,0.000016911886632442474,-0.0008337062317878008
1783338298864570400,10.5455703125,0.0005219393642619252,0.0001394175924360752,0.0005436805076897144
1783338298874542600,10.55554248046875,0.00034619553480297327,0.0001813839189708233,0.00040442985482513905
1783338298884515300,10.565515380859376,0.0007035917369648814,-0.0013781632296741009,-0.00037321331910789013
1783338298894487300,10.5754873046875,-0.001895644934847951,0.0017190552316606045,-0.0016166381537914276
1783338298904460500,10.58546044921875,-0.00014062179252505302,-0.0009536934085190296,-0.0003479081206023693
1783338298914433500,10.59543359375,0.0004450044361874461,-0.00036182254552841187,-0.00014575617387890816
1783338298924405200,10.6054052734375,-0.00010600360110402107,0.000878145219758153,-0.0005036848597228527
1783338298934378500,10.61537841796875,0.0009149962570518255,0.0006801970303058624,0.0010128309950232506
1783338298944350500,10.6253505859375,-0.0006552034756168723,-0.0011930703185498714,-0.0006524438504129648
1783338298954323200,10.6353232421875,0.00019130168948322535,-0.0001597292721271515,-0.0004465007223188877
1783338298964296400,10.64529638671875,0.0007002317579463124,0.0005984725430607796,0.0010057208128273487
1783338298974268400,10.655268310546875,0.00028292753268033266,-0.00002115406095981598,-0.0002212675753980875
1783338298984241400,10.665241455078124,0.0010355368722230196,0.00018896907567977905,0.0010549190919846296
1783338298994213400,10.67521337890625,-0.001385308220051229,-0.00041272956877946854,-0.0016064164228737354
1783338299004186400,10.685186279296875,-0.0003988732350990176,-0.00047611305490136147,-0.000011183088645339012
1783338299014159400,10.695159423828125,0.0000273105688393116,0.0004613306373357773,0.0003455565311014652
1783338299024131300,10.70513134765625,0.0011013634502887726,-0.0003032633103430271,0.001912826905027032
1783338299034104300,10.715104248046876,-0.0010896193562075496,0.00030129682272672653,-0.0008191040251404047
1783338299044076500,10.72507666015625,0.00023796630557626486,0.00039530638605356216,0.001964698312804103
1783338299054049500,10.735049560546875,0.0013977608177810907,0.00038248440250754356,0.001710919663310051
1783338299064022300,10.745022216796874,-0.0006731132743880153,-0.0002779797650873661,-0.0005509031470865011
1783338299073994500,10.754994384765626,0.00015327590517699718,-0.0019581331871449947,0.0001630387268960476
1783338299083967500,10.764967529296875,-0.00024326879065483809,0.00003923801705241203,0.0003531884867697954
1783338299093939200,10.774939208984375,0.0007732240483164787,-0.0002609989605844021,-0.0005282172933220863
1783338299103912700,10.78491259765625,-0.0006267997669056058,-0.0005970899946987629,0.0023831501603126526
1783338299113885700,10.7948857421875,0.0004790583625435829,0.00014691054821014404,-0.0004997225478291512
1783338299123857400,10.804857421875,0.0006082216277718544,-0.0012384657748043537,-0.0017647240310907364
1783338299133830700,10.81483056640625,0.000843155081383884,0.000653380062431097,-0.0010098102502524853
1783338299143802600,10.824802734375,-0.0008759155170992017,-0.0009253420867025852,0.00019606901332736015
1783338299153775600,10.834775634765625,0.0006154890870675445,-0.0007932642474770546,-0.0003505018539726734
1783338299163748600,10.84474853515625,0.0009238830534741282,-0.0005146977491676807,0.0004793391562998295
1783338299173720600,10.854720458984374,0.0000743278069421649,0.0018219244666397572,0.0006302904803305864
1783338299183693600,10.864693603515626,-0.001984828617423773,0.0011353616137057543,0.0009333582129329443
1783338299193665500,10.87466552734375,-0.000642649014480412,-0.0009835059754550457,-0.000935056246817112
1783338299203638500,10.884638427734375,-0.0011521117994561791,0.000034088268876075745,-0.000665011815726757
1783338299213610800,10.89461083984375,0.00018415506929159164,0.001761697232723236,0.000285702059045434
1783338299223583700,10.904583740234376,0.0004339595325291157,-0.0022495556622743607,-0.0003446682821959257
1783338299233556500,10.914556396484375,0.000019473140127956867,-0.0006465096957981586,0.0014623040333390236
1783338299243528700,10.92452880859375,0.0001510332804173231,0.0005748160183429718,-0.0003222802188247442
1783338299253501700,10.934501708984374,0.00027890584897249937,0.0018479928839951754,0.0008315769955515862
1783338299263473400,10.944473388671875,-0.000680098426528275,-0.0018308977596461773,0.0005231827963143587
1783338299273446700,10.95444677734375,-0.0009469963843002915,0.0011520478874444962,-0.00015534576959908009
1783338299283419600,10.964419677734375,-0.0008082458516582847,0.0008950529154390097,0.00005903886631131172
1783338299293391600,10.9743916015625,-0.0003129992401227355,0.0010597074870020151,-0.0006843407172709703
1783338299303364600,10.984364501953126,-0.0003281793324276805,0.0010969918221235275,0.0007662833668291569
1783338299313336600,10.994336669921875,-0.0003878180868923664,-0.000699182040989399,0.0002853437326848507
1783338299323309600,11.0043095703125,-0.000506062526255846,-0.0008661621250212193,0.0005543229635804892
1783338299333282800,11.01428271484375,0.00032857852056622505,0.00019917543977499008,0.0015546411741524935
1783338299343254500,11.024254638671875,0.0011451037134975195,-0.00019443966448307037,0.0011980438139289618
1783338299353227500,11.0342275390625,-0.0012405712623149157,-0.0011118329130113125,-0.0008224253542721272
1783338299363199700,11.04419970703125,0.0008255090797320008,-0.0007823999039828777,0.0002444367855787277
1783338299373172500,11.05417236328125,-0.0010511192958801985,-0.0005026408471167088,0.000267229275777936
1783338299383145500,11.0641455078125,-0.0010149001609534025,-0.0008075730875134468,0.0002150312066078186
1783338299393117700,11.07411767578125,0.000438417075201869,-0.00009507033973932266,0.0007253913208842278
1783338299403090700,11.084090576171874,-0.0003402911825105548,0.0012306510470807552,-0.000014701159670948982
1783338299413062700,11.094062744140626,-0.0000539066968485713,0.00032571563497185707,-0.00038443179801106453
1783338299423035600,11.10403564453125,-0.0002360668731853366,-0.0006697741337120533,0.0001508637797087431
1783338299433008600,11.114008544921875,-0.0007875610608607531,0.0006285416893661022,-0.0010778186842799187
1783338299442980600,11.123980712890624,0.0004819679306820035,0.0007712868973612785,0.0005280673503875732
1783338299452953600,11.13395361328125,-0.0006448710337281227,0.00179541134275496,-0.0019009881652891636
1783338299462925600,11.143925537109375,0.000309339608065784,0.00003559468314051628,0.0008103761356323957
1783338299472898600,11.153898681640625,0.00017198605928570032,0.001687699230387807,0.002253374783322215
1783338299482871600,11.16387158203125,0.0008271237602457404,-0.00027718115597963333,-0.000050525879487395287
1783338299492843500,11.173843505859375,0.00023141573183238506,0.002076938049867749,0.000055724987760186195
1783338299502816800,11.183816650390625,-0.000026378314942121506,-0.0002698395401239395,0.00024374411441385746
1783338299512788500,11.19378857421875,0.0006816722452640533,0.00039658742025494576,-0.00023745396174490452
1783338299522761500,11.203761474609376,0.0001655516680330038,-0.0001120762899518013,-0.0005485110450536013
1783338299532734700,11.213734619140626,-0.00027702865190804005,-0.00013706088066101074,-0.0006798445247113705
1783338299542706400,11.22370654296875,-0.0017412344459444284,-0.0009453301317989826,0.0016014190623536706
1783338299552679400,11.233679443359375,-0.00016069505363702774,-0.0021532103419303894,-0.0005090346094220877
1783338299562651600,11.243651611328126,0.00014237279538065195,0.00026866793632507324,-0.0000064962077885866165
1783338299572624600,11.253624755859375,-0.00023521319963037968,-0.0008077351376414299,-0.00036486866883933544
1783338299582596600,11.2635966796875,-0.0003710344899445772,0.00029454752802848816,0.0003312816843390465
1783338299592569600,11.273569580078124,-0.0005994668463245034,-0.00032472098246216774,-0.0003789849579334259
1783338299602542600,11.28354248046875,-0.00085699453484267,0.0014747767709195614,0.0001627020537853241
1783338299612514600,11.2935146484375,-0.0003313514171168208,0.0002674814313650131,0.00007962784729897976
1783338299622487600,11.303487548828125,-0.00032016600016504526,-0.0006292047910392284,-0.0001906829420477152
1783338299632459500,11.31345947265625,-0.0008881186367943883,0.0010810690000653267,0.00007691490463912487
1783338299642432800,11.323432861328126,0.0019673227798193693,0.0006666812114417553,-0.000089266337454319
1783338299652405500,11.333405517578125,-0.00010083825327455997,-0.0011370857246220112,-0.001215112628415227
1783338299662377500,11.34337744140625,-0.0007919284980744123,-0.00029446184635162354,-0.00018819770775735378
1783338299672350700,11.353350830078124,-0.0010329611832275987,-0.0004140748642385006,0.0012345395516604185
1783338299682322400,11.363322509765625,0.00020993605721741915,0.00005011400207877159,-0.0007777451537549496
1783338299692295400,11.37329541015625,0.0016913048457354307,-0.0009694090113043785,-0.0005157077684998512
1783338299702268700,11.3832685546875,-0.0009742530528455973,0.0007621785625815392,-0.0008344883099198341
1783338299712240600,11.39324072265625,0.0011203819885849953,0.0015062217134982347,0.0011156927794218063
1783338299722213600,11.403213623046875,-0.0011558218393474817,0.0007461556233465672,-0.0015930086374282837
1783338299732185600,11.413185546875,0.0013381006428971887,0.00023214565590023994,-0.0001601001713424921
1783338299742158600,11.42315869140625,0.0009684538817964494,0.0008465368300676346,0.0007211398333311081
1783338299752131600,11.433131591796876,-0.00008260656613856554,0.00007592374458909035,-0.0005076371598988771
1783338299762103600,11.443103515625,0.0005887763109058142,0.0010618260130286217,0.0002705382648855448
1783338299772076500,11.45307666015625,0.0009517293656244874,-0.00007491745054721832,0.00036896788515150547
